time,accel x,accel y,accel z,gyro x,gyro y,gyro z
1515625195,0.031691,-0.017888,0.062389,0.090347,-0.968433,-0.325977
1515625195,0.042756,-0.023633,0.074157,0.012872,-1.064672,-0.341941
1515625195,0.039978,-0.040156,0.082511,-0.120358,-1.013347,-0.32048
1515625195,0.027504,-0.039857,0.079091,-0.218272,-0.803202,-0.273189
1515625195,0.004267,-0.024275,0.083513,-0.275638,-0.566192,-0.22616
1515625195,-0.012475,-0.008253,0.075064,-0.310894,-0.3884,-0.211623
1515625195,-0.000875,-0.010425,0.060699,-0.328816,-0.331478,-0.251734
1515625195,0.011151,-0.023322,0.040737,-0.335863,-0.411582,-0.338221
1515625195,0.010284,-0.032942,0.033248,-0.296263,-0.541214,-0.454654
1515625195,-0.007658,-0.014862,0.031933,-0.251038,-0.723068,-0.573784
1515625195,-0.03103,0.016192,0.017826,-0.209065,-0.869659,-0.702138
1515625195,-0.045711,0.041479,0.015664,-0.131025,-0.997031,-0.812746
1515625195,-0.062109,0.065694,0.022246,-0.087282,-1.138436,-0.83422
1515625195,-0.066648,0.070305,0.013191,-0.099846,-1.220731,-0.826817
1515625195,-0.043835,0.068355,0.012257,-0.119537,-1.231929,-0.790874
1515625195,-0.016397,0.059347,0.027536,-0.157852,-1.199686,-0.737542
1515625195,0.007531,0.038836,0.041864,-0.216828,-1.083244,-0.68878
1515625195,0.011023,0.012245,0.041202,-0.255142,-0.952462,-0.669505
1515625195,0.004514,-0.008227,0.043847,-0.295398,-0.917984,-0.712291
1515625195,0.006787,-0.01892,0.0565,-0.347051,-0.973391,-0.833186
1515625195,0.034319,-0.03792,0.057415,-0.385561,-1.03596,-0.974303
1515625195,0.072729,-0.061766,0.053783,-0.387173,-1.002427,-1.106347
1515625195,0.093777,-0.078403,0.081739,-0.338371,-0.869835,-1.200291
1515625195,0.109046,-0.100714,0.121488,-0.277953,-0.709365,-1.211524
1515625195,0.119646,-0.128663,0.137205,-0.221617,-0.640766,-1.125655
1515625195,0.127193,-0.156552,0.140706,-0.178216,-0.612851,-0.937907
1515625195,0.113345,-0.174606,0.164642,-0.157963,-0.527687,-0.638674
1515625195,0.110899,-0.193868,0.210586,-0.265213,-0.425944,-0.173084
1515625195,0.148182,-0.242574,0.226482,-0.502906,-0.618499,0.223331
1515625195,0.150873,-0.151723,0.138079,-0.748703,-0.914997,0.379173
1515625195,0.092973,-0.019217,0.142481,-0.872261,-1.090668,0.475979
1515625195,0.052777,-0.023875,0.185581,-0.918953,-1.191249,0.480621
1515625195,0.06061,-0.055791,0.171579,-0.948138,-1.330115,0.388894
1515625195,0.087284,-0.073847,0.165402,-0.983018,-1.439422,0.232306
1515625195,0.109816,-0.078736,0.194559,-1.000831,-1.45014,0.046136
1515625195,0.127494,-0.069606,0.258767,-0.969032,-1.344459,-0.12843
1515625195,0.12939,-0.064927,0.321111,-0.854946,-1.183667,-0.231938
1515625195,0.118259,-0.083326,0.327546,-0.693615,-1.160549,-0.219063
1515625195,0.114854,-0.091553,0.31023,-0.512982,-1.292628,-0.155494
1515625195,0.109197,-0.085815,0.300693,-0.36659,-1.424858,-0.092335
1515625195,0.098516,-0.08831,0.297008,-0.27783,-1.589409,-0.03025
1515625195,0.108379,-0.084118,0.290648,-0.210687,-1.84113,-0.00258
1515625195,0.141742,-0.070517,0.284235,-0.100518,-2.158933,-0.048887
1515625195,0.152916,-0.074787,0.290126,0.040252,-2.400939,-0.088575
1515625195,0.137995,-0.087885,0.290904,0.126727,-2.484222,-0.043694
1515625195,0.082212,-0.105457,0.250756,0.032616,-2.409435,0.086382
1515625195,0.020145,-0.110555,0.138354,-0.276785,-2.210603,0.186554
1515625195,0.00932,-0.078346,0.001595,-0.729413,-1.939581,0.24745
1515625195,0.002227,-0.039877,-0.069518,-1.114079,-1.512175,0.375116
1515625195,-0.023584,-0.028873,-0.041101,-1.238816,-1.055501,0.584185
1515625195,-0.041603,-0.029263,0.03458,-1.128435,-0.828394,0.73668
1515625195,0.003448,-0.009276,0.075478,-0.808885,-0.748885,0.743571
1515625195,0.059728,-0.000944,0.139412,-0.396585,-0.874034,0.687157
1515625195,0.018746,-0.01168,0.136217,-0.251239,-1.002221,0.585883
1515625195,0.007238,-0.029735,0.040668,-0.431925,-0.905688,0.457808
1515625195,0.016313,-0.0167,0.020709,-0.69857,-0.700539,0.398371
1515625195,-0.007592,-0.014296,0.047636,-0.938621,-0.57897,0.379897
1515625195,0.002857,-0.016426,0.06672,-1.067088,-0.585049,0.384705
1515625195,0.029012,0.002313,0.107746,-1.040034,-0.741005,0.416255
1515625195,0.055039,0.025511,0.149304,-0.851665,-1.090358,0.455938
1515625195,0.073567,0.03654,0.188129,-0.605711,-1.539324,0.465203
1515625195,0.074346,0.046158,0.21164,-0.434645,-2.074481,0.421276
1515625195,0.066155,0.058065,0.205994,-0.388767,-2.569555,0.361391
1515625195,0.061915,0.056272,0.198258,-0.533797,-3.018913,0.315809
1515625195,0.005577,0.047456,0.116162,-0.890428,-3.325532,0.277979
1515625195,-0.064117,0.060194,0.022287,-1.305436,-3.173311,0.20653
1515625195,-0.079163,0.105511,-0.00576,-1.616552,-2.856418,0.153247
1515625195,-0.121606,0.13797,-0.04,-1.702189,-2.824634,0.224166
1515625195,-0.137215,0.145064,-0.07653,-1.615966,-2.698102,0.296136
1515625195,-0.079036,0.170442,-0.05284,-1.351712,-2.711632,0.388823
1515625195,-0.13874,0.191423,-0.056234,-1.027941,-2.676953,0.496678
1515625195,-0.147075,0.1698,-0.07115,-0.87621,-2.534713,0.627284
1515625195,-0.148201,0.143544,-0.114309,-0.925261,-2.386811,0.723536
1515625195,-0.156522,0.120309,-0.157213,-1.065741,-2.253798,0.779003
1515625195,-0.152045,0.099346,-0.167302,-1.152728,-2.135476,0.841335
1515625195,-0.17628,0.099496,-0.159405,-1.125405,-2.016755,0.918915
1515625195,-0.204547,0.12283,-0.142037,-1.043926,-1.929162,1.039483
1515625195,-0.206653,0.147562,-0.13539,-0.929545,-1.910202,1.204471
1515625195,-0.202383,0.168721,-0.119294,-0.850287,-1.92877,1.367524
1515625195,-0.186332,0.172418,-0.114434,-0.777454,-2.04602,1.484456
1515625195,-0.207023,0.165247,-0.098935,-0.731002,-2.077409,1.54337
1515625195,-0.188164,0.145732,-0.0871,-0.726914,-2.056263,1.469982
1515625195,-0.166438,0.136224,-0.083858,-0.737703,-2.11234,1.334613
1515625195,-0.160763,0.125839,-0.094614,-0.720822,-2.136283,1.19996
1515625195,-0.161615,0.114552,-0.081478,-0.699021,-2.148664,1.174438
1515625195,-0.182518,0.116931,-0.098262,-0.702634,-2.008598,1.236956
1515625195,-0.169106,0.1138,-0.107239,-0.768086,-1.861053,1.359706
1515625195,-0.158199,0.104124,-0.134817,-0.886504,-1.648898,1.499691
1515625195,-0.136343,0.087931,-0.139321,-1.008395,-1.41569,1.571537
1515625195,-0.093518,0.043352,-0.137755,-1.117618,-1.154985,1.485804
1515625195,-0.050142,0.026001,-0.126037,-1.191289,-0.921832,1.311517
1515625195,-0.043764,-0.007164,-0.132313,-1.236761,-0.783551,1.141765
1515625196,-0.05161,-0.015039,-0.135771,-1.239037,-0.656488,0.94676
1515625196,-0.045465,-0.00367,-0.121945,-1.235632,-0.597516,0.831101
1515625196,-0.057964,-0.026731,-0.127143,-1.26942,-0.671354,0.74117
1515625196,-0.045194,-0.019519,-0.132434,-1.286186,-0.677555,0.716333
1515625196,-0.043714,-0.042593,-0.114702,-1.268215,-0.621947,0.714011
1515625196,-0.038704,-0.034632,-0.117392,-1.206693,-0.534275,0.72541
1515625196,-0.057365,-0.03918,-0.152033,-1.131535,-0.511026,0.779981
1515625196,-0.061568,-0.056733,-0.180136,-1.050955,-0.380589,0.792121
1515625196,-0.032457,-0.074044,-0.157031,-1.00608,-0.351503,0.787665
1515625196,-0.015659,-0.097323,-0.167079,-0.938304,-0.463293,0.79994
1515625196,-0.012488,-0.10429,-0.164176,-0.804235,-0.564068,0.813136
1515625196,-0.001804,-0.100018,-0.153113,-0.593222,-0.755446,0.946836
1515625196,-0.026877,-0.095264,-0.173976,-0.355317,-0.880976,1.208739
1515625196,-0.096013,-0.083236,-0.164978,-0.062505,-0.89868,1.489681
1515625196,-0.147501,-0.116979,-0.127179,0.221008,-0.823064,1.632796
1515625196,-0.121967,-0.14576,-0.098325,0.435353,-0.707044,1.570525
1515625196,-0.123288,-0.1786,-0.088073,0.571964,-0.637297,1.413861
1515625196,-0.164216,-0.233388,-0.094549,0.629044,-0.527553,1.26848
1515625196,-0.168072,-0.256586,-0.081696,0.585507,-0.332545,1.17526
1515625196,-0.160974,-0.269436,-0.08455,0.449793,-0.210733,1.278708
1515625196,-0.195083,-0.278043,-0.093787,0.35,-0.093456,1.418842
1515625196,-0.190074,-0.255849,-0.04504,0.260993,-0.063973,1.50251
1515625196,-0.159859,-0.271168,-0.030257,0.110653,-0.109255,1.475613
1515625196,-0.152957,-0.302698,-0.035701,-0.148453,-0.1098,1.403109
1515625196,-0.152048,-0.311332,-0.025593,-0.505369,-0.061148,1.183721
1515625196,-0.109008,-0.300454,-0.024728,-0.810704,0.077803,0.836809
1515625196,-0.095388,-0.287788,0.017227,-0.94729,0.282728,0.493761
1515625196,-0.121125,-0.259448,0.0451,-0.95858,0.411367,0.251676
1515625196,-0.174396,-0.235824,0.007684,-0.916173,0.425968,0.115655
1515625196,-0.200702,-0.211704,-0.02615,-0.87369,0.420425,0.061627
1515625196,-0.212059,-0.187674,-0.052588,-0.850797,0.439119,0.023677
1515625196,-0.197597,-0.169805,-0.075645,-0.823308,0.461463,0.04136
1515625196,-0.206403,-0.156912,-0.104939,-0.758474,0.452843,0.078338
1515625196,-0.197585,-0.141526,-0.124603,-0.63861,0.39886,0.097268
1515625196,-0.178839,-0.140111,-0.134844,-0.470333,0.299293,0.113022
1515625196,-0.177437,-0.115655,-0.139261,-0.256961,0.152978,0.134087
1515625196,-0.187807,-0.075059,-0.138751,-0.025553,-0.008368,0.172273
1515625196,-0.208665,-0.034848,-0.137603,0.190516,-0.142268,0.227695
1515625196,-0.241368,0.004406,-0.145508,0.337572,-0.17097,0.285701
1515625196,-0.281074,0.045064,-0.150718,0.439446,-0.128345,0.336552
1515625196,-0.308662,0.061189,-0.153652,0.53153,-0.061282,0.390785
1515625196,-0.318337,0.039402,-0.14992,0.637705,0.003876,0.432346
1515625196,-0.315978,0.00729,-0.146646,0.747912,0.051601,0.418209
1515625196,-0.294724,-0.045244,-0.141724,0.85507,0.042528,0.330731
1515625196,-0.260479,-0.100486,-0.136906,0.937926,-0.039355,0.164124
1515625196,-0.2374,-0.129031,-0.131317,1.015241,-0.133351,-0.064637
1515625196,-0.230579,-0.135904,-0.114846,1.083476,-0.226918,-0.335151
1515625196,-0.239138,-0.103178,-0.098092,1.144969,-0.258672,-0.602865
1515625196,-0.244316,-0.066749,-0.077117,1.172738,-0.284654,-0.831396
1515625196,-0.252578,-0.032249,-0.061411,1.143278,-0.375663,-0.999447
1515625196,-0.243963,-0.004135,-0.044596,1.053994,-0.489256,-1.087315
1515625196,-0.217519,-0.000009,-0.018477,0.89976,-0.637057,-1.108015
1515625196,-0.189476,-0.001033,-0.01069,0.696468,-0.802109,-1.135914
1515625196,-0.166453,-0.008484,-0.005933,0.498716,-0.972446,-1.256724
1515625196,-0.151101,-0.007388,0.00133,0.344784,-1.052764,-1.484864
1515625196,-0.12322,0.023378,0.001544,0.22353,-0.940416,-1.661169
1515625196,-0.09368,0.029393,-0.004237,0.171157,-0.672895,-1.758958
1515625196,-0.078346,0.012116,-0.008858,0.151573,-0.331479,-1.772167
1515625196,-0.026715,0.032999,-0.010772,0.194265,0.044876,-1.731886
1515625196,-0.001134,0.032196,-0.005889,0.249508,0.311767,-1.631898
1515625196,0.027776,0.037599,0.002575,0.332051,0.609266,-1.583547
1515625196,0.081909,0.059111,0.036359,0.356057,0.856534,-1.461738
1515625196,0.095652,0.067193,0.035022,0.32487,1.111532,-1.296705
1515625196,0.130578,0.055266,0.048576,0.293112,1.339122,-1.159777
1515625196,0.147758,0.044223,0.059995,0.275639,1.448121,-1.090323
1515625196,0.154111,0.041763,0.065361,0.308532,1.38901,-1.129091
1515625196,0.178599,0.030302,0.073668,0.428114,1.247738,-1.220147
1515625196,0.183869,0.026247,0.086312,0.59073,0.964338,-1.359397
1515625196,0.198081,0.042041,0.104401,0.699857,0.725681,-1.515833
1515625196,0.226167,0.063251,0.124422,0.751551,0.517254,-1.548699
1515625196,0.215152,0.084149,0.125028,0.764225,0.360757,-1.48208
1515625196,0.250967,0.074829,0.149434,0.745101,0.234518,-1.368485
1515625196,0.262775,0.083186,0.169619,0.725361,0.128106,-1.215146
1515625196,0.249749,0.100778,0.183203,0.716871,0.033997,-1.107446
1515625196,0.271203,0.109775,0.193493,0.742639,-0.013988,-1.097038
1515625196,0.282533,0.126082,0.198409,0.759474,-0.020707,-1.153522
1515625196,0.288117,0.119298,0.184495,0.745059,-0.011714,-1.199508
1515625196,0.306997,0.11872,0.176579,0.727017,-0.09535,-1.262672
1515625196,0.301215,0.135386,0.173751,0.688401,-0.283181,-1.271802
1515625196,0.291761,0.151496,0.15668,0.630254,-0.524927,-1.242297
1515625196,0.271363,0.190576,0.134109,0.596498,-0.760172,-1.117374
1515625196,0.198917,0.239982,0.127785,0.637242,-0.778783,-0.874683
1515625196,0.088041,0.305028,0.138563,0.635381,-0.943944,-0.435617
1515625196,-0.043526,0.348911,0.025469,0.595392,-0.93838,0.075537
1515625196,-0.094639,0.372304,0.036216,0.567914,-0.727545,0.460088
1515625196,-0.01185,0.372979,0.057429,0.488881,-0.691153,0.596288
1515625196,0.058987,0.350227,0.019511,0.376093,-0.787585,0.579904
1515625196,0.03024,0.348047,0.021276,0.253783,-0.727585,0.50121
1515625196,-0.018721,0.317334,0.044528,0.097884,-0.625379,0.358545
1515625196,-0.022609,0.296567,0.038937,-0.075503,-0.518267,0.241364
1515625196,-0.014954,0.277354,0.039989,-0.248286,-0.350392,0.218905
1515625196,-0.033567,0.284451,0.057184,-0.433739,-0.090054,0.312751
1515625196,-0.070554,0.301808,0.068936,-0.656228,0.183529,0.531272
1515625196,-0.105572,0.31991,0.064551,-0.958178,0.401864,0.788764
1515625196,-0.103526,0.329431,0.059836,-1.303177,0.451351,0.961476
1515625196,-0.099333,0.331397,0.041801,-1.622323,0.355319,1.091092
1515625196,-0.150382,0.324839,0.033297,-1.842971,0.34006,1.109645
1515625196,-0.153523,0.332227,0.050918,-1.971309,0.383237,1.007182
1515625196,-0.121803,0.323509,0.047205,-1.986957,0.470149,0.866001
1515625196,-0.079563,0.273183,0.045776,-1.898826,0.549011,0.730228
1515625196,-0.024237,0.201065,0.044315,-1.748531,0.523315,0.623839
1515625197,0.011593,0.127349,0.028523,-1.561863,0.383202,0.558156
1515625197,0.017572,0.070922,0.012067,-1.361798,0.175227,0.554825
1515625197,0.018872,0.03662,0.004594,-1.14355,-0.05194,0.558955
1515625197,0.031371,0.008695,0.003647,-0.902954,-0.312285,0.584309
1515625197,0.025044,-0.009916,-0.004577,-0.632615,-0.586608,0.63121
1515625197,0.017803,-0.009941,-0.008517,-0.334837,-0.834365,0.697981
1515625197,0.005374,-0.001261,-0.008534,-0.014942,-1.057667,0.783464
1515625197,-0.015386,0.019643,-0.012108,0.304802,-1.24573,0.868299
1515625197,-0.026575,0.031088,-0.016509,0.603102,-1.410406,0.947824
1515625197,-0.023977,0.029516,-0.01981,0.86914,-1.544331,1.028403
1515625197,-0.013272,0.02049,-0.021339,1.094242,-1.677639,1.128795
1515625197,0.007116,-0.002301,-0.029099,1.280306,-1.792351,1.260988
1515625197,0.035883,-0.010447,-0.030122,1.420506,-1.850252,1.442445
1515625197,0.062,-0.015565,-0.028782,1.4978,-1.862098,1.670701
1515625197,0.091444,-0.024047,-0.03271,1.565752,-1.794478,1.849607
1515625197,0.102709,-0.023818,-0.018219,1.620724,-1.752882,1.967171
1515625197,0.082974,-0.044374,-0.020932,1.642903,-1.713521,1.895286
1515625197,0.101676,-0.074742,0.003993,1.574589,-1.661632,1.621696
1515625197,0.122646,-0.121719,0.020838,1.403346,-1.637362,1.291016
1515625197,0.118088,-0.15491,0.029664,1.164788,-1.589813,0.943798
1515625197,0.113724,-0.162483,0.039889,0.901731,-1.519651,0.660638
1515625197,0.117659,-0.166518,0.041878,0.657273,-1.397346,0.490463
1515625197,0.116563,-0.15757,0.039741,0.438716,-1.223065,0.447246
1515625197,0.108585,-0.140621,0.026613,0.234612,-0.983706,0.502169
1515625197,0.108301,-0.134243,0.012629,0.05311,-0.710785,0.616504
1515625197,0.109832,-0.136469,-0.003533,-0.129544,-0.411143,0.727942
1515625197,0.102807,-0.133061,-0.020551,-0.328029,-0.068569,0.807671
1515625197,0.090463,-0.13257,-0.027947,-0.510824,0.273629,0.834184
1515625197,0.075312,-0.128946,-0.022629,-0.639339,0.563253,0.821193
1515625197,0.064622,-0.125444,-0.013075,-0.692566,0.765761,0.810184
1515625197,0.052155,-0.123176,0.001005,-0.660938,0.847981,0.817958
1515625197,0.027945,-0.111481,0.019434,-0.54786,0.838649,0.849091
1515625197,0.009973,-0.103949,0.045124,-0.382117,0.720523,0.900901
1515625197,-0.001,-0.112939,0.063982,-0.176524,0.52143,0.961822
1515625197,-0.014247,-0.12892,0.079815,0.049527,0.307561,1.018536
1515625197,-0.030056,-0.143809,0.09633,0.261685,0.137531,1.058526
1515625197,-0.044228,-0.16085,0.104475,0.432143,0.014457,1.079361
1515625197,-0.061964,-0.179498,0.109181,0.551458,-0.059406,1.066005
1515625197,-0.090807,-0.183838,0.110594,0.629055,-0.079934,1.032505
1515625197,-0.116867,-0.173165,0.122656,0.629332,-0.036851,0.996716
1515625197,-0.148697,-0.151474,0.128772,0.553834,0.063984,1.005577
1515625197,-0.190391,-0.133262,0.126422,0.435264,0.216958,1.096789
1515625197,-0.232741,-0.124764,0.11503,0.288946,0.394623,1.254182
1515625197,-0.256408,-0.13526,0.097803,0.162766,0.565825,1.428823
1515625197,-0.280445,-0.153637,0.09803,0.068448,0.71112,1.550133
1515625197,-0.309439,-0.170119,0.113019,-0.007776,0.849725,1.519926
1515625197,-0.319488,-0.198306,0.128625,-0.110297,0.961577,1.303255
1515625197,-0.309749,-0.24289,0.132586,-0.268212,1.047405,0.914735
1515625197,-0.303158,-0.283244,0.140254,-0.486233,1.093936,0.39153
1515625197,-0.302642,-0.294788,0.150719,-0.753199,1.126541,-0.148444
1515625197,-0.313474,-0.263597,0.157281,-1.069353,1.202011,-0.545377
1515625197,-0.360288,-0.170271,0.149481,-1.411718,1.308169,-0.752149
1515625197,-0.412836,-0.040904,0.128559,-1.699757,1.39218,-0.77058
1515625197,-0.445035,0.055067,0.102268,-1.849656,1.452638,-0.625321
1515625197,-0.459107,0.093961,0.080826,-1.848258,1.444749,-0.405396
1515625197,-0.455331,0.094186,0.056001,-1.712327,1.351478,-0.212667
1515625197,-0.43245,0.061216,0.028714,-1.479368,1.164979,-0.121366
1515625197,-0.399721,0.014338,-0.003247,-1.192955,0.925963,-0.168898
1515625197,-0.362568,-0.025381,-0.030375,-0.875978,0.654323,-0.330735
1515625197,-0.343063,-0.03571,-0.054594,-0.550213,0.351756,-0.579348
1515625197,-0.344661,-0.008563,-0.071199,-0.222945,0.044206,-0.858973
1515625197,-0.354447,0.038257,-0.08144,0.069503,-0.23404,-1.105552
1515625197,-0.360922,0.084497,-0.08875,0.308353,-0.449334,-1.286863
1515625197,-0.35585,0.11927,-0.093237,0.492542,-0.627395,-1.394683
1515625197,-0.340925,0.137503,-0.100829,0.637093,-0.716656,-1.449574
1515625197,-0.312747,0.148087,-0.103764,0.758614,-0.744387,-1.483709
1515625197,-0.263787,0.128241,-0.107925,0.871637,-0.741066,-1.533589
1515625197,-0.202191,0.089233,-0.109111,0.983828,-0.704351,-1.612979
1515625197,-0.136778,0.049933,-0.106521,1.08651,-0.648284,-1.70827
1515625197,-0.072278,0.014031,-0.099074,1.179472,-0.56981,-1.804478
1515625197,-0.012176,-0.007083,-0.089532,1.268191,-0.511721,-1.896706
1515625197,0.041611,-0.025338,-0.077672,1.362412,-0.488822,-1.988225
1515625197,0.092261,-0.032574,-0.062988,1.457518,-0.50142,-2.053461
1515625197,0.131219,-0.022678,-0.051529,1.539446,-0.535826,-2.086007
1515625197,0.165128,-0.011536,-0.039494,1.590092,-0.550245,-2.106939
1515625197,0.199037,0.003743,-0.027558,1.584852,-0.558756,-2.112442
1515625197,0.221474,0.020535,-0.020464,1.519083,-0.529545,-2.086173
1515625197,0.237547,0.036593,-0.012782,1.388317,-0.473533,-2.010157
1515625197,0.25489,0.037332,-0.009374,1.228022,-0.415017,-1.887472
1515625197,0.267948,0.030217,0.00413,1.047053,-0.337615,-1.745582
1515625197,0.265502,0.036355,0.026245,0.817913,-0.239076,-1.610417
1515625197,0.261981,0.049203,0.043006,0.551603,-0.161942,-1.489833
1515625197,0.274419,0.051613,0.060325,0.235471,-0.061053,-1.413344
1515625197,0.28644,0.065703,0.072423,-0.081236,0.11529,-1.400036
1515625197,0.279112,0.094922,0.078179,-0.312733,0.319406,-1.446252
1515625197,0.285339,0.106746,0.076491,-0.452818,0.486884,-1.51318
1515625197,0.298051,0.116769,0.066979,-0.538494,0.603121,-1.54911
1515625197,0.295952,0.153568,0.060255,-0.572456,0.698693,-1.522735
1515625197,0.297401,0.1841,0.059378,-0.555782,0.743501,-1.423743
1515625197,0.297931,0.209961,0.05793,-0.505205,0.746405,-1.284269
1515625197,0.287496,0.245216,0.056593,-0.428517,0.691993,-1.156924
1515625197,0.282341,0.261006,0.05921,-0.360121,0.571337,-1.027268
1515625197,0.266421,0.276125,0.054274,-0.308831,0.427073,-0.890626
1515625197,0.244002,0.298859,0.049654,-0.284571,0.27279,-0.729863
1515625197,0.220232,0.31808,0.042036,-0.264774,0.115102,-0.554242
1515625197,0.191302,0.34413,0.03709,-0.231361,-0.019219,-0.364294
1515625197,0.161111,0.367556,0.031341,-0.177885,-0.111891,-0.168266
1515625197,0.130112,0.383108,0.024037,-0.119104,-0.156383,0.014522
1515625197,0.10622,0.39079,0.020456,-0.070938,-0.170859,0.180457
1515625197,0.090131,0.38565,0.017273,-0.050266,-0.1616,0.313242
1515625197,0.075129,0.372318,0.015665,-0.068408,-0.119752,0.375473
1515625197,0.071268,0.353147,0.014149,-0.115837,-0.041051,0.373721
1515625198,0.079705,0.32144,0.015782,-0.193063,0.053711,0.353653
1515625198,0.093042,0.293546,0.02025,-0.262943,0.1548,0.342293
1515625198,0.096779,0.282674,0.031945,-0.313473,0.216449,0.338163
1515625198,0.085131,0.298292,0.05171,-0.345324,0.214377,0.319603
1515625198,0.048694,0.339245,0.071685,-0.399747,0.16174,0.325798
1515625198,0.01036,0.369392,0.085322,-0.50183,0.078377,0.385522
1515625198,-0.013911,0.375186,0.08427,-0.637962,-0.005958,0.511047
1515625198,-0.033465,0.370023,0.073771,-0.82064,-0.088887,0.675552
1515625198,-0.047837,0.360898,0.056313,-1.052036,-0.109353,0.86052
1515625198,-0.045915,0.33012,0.030726,-1.276096,-0.066697,1.035654
1515625198,-0.020423,0.259867,0.000737,-1.471754,0.032291,1.147727
1515625198,0.002438,0.200116,-0.030047,-1.594752,0.190304,1.167395
1515625198,0.003369,0.176319,-0.046817,-1.639236,0.375901,1.148809
1515625198,-0.006891,0.171933,-0.058766,-1.599189,0.54481,1.137434
1515625198,-0.019885,0.171898,-0.062622,-1.473697,0.666887,1.155347
1515625198,-0.029927,0.16601,-0.056698,-1.275604,0.701376,1.216855
1515625198,-0.043034,0.157394,-0.046629,-1.024023,0.637586,1.314127
1515625198,-0.057672,0.147162,-0.035973,-0.735602,0.471571,1.412741
1515625198,-0.070801,0.133959,-0.026007,-0.427211,0.224881,1.486058
1515625198,-0.085338,0.113827,-0.019395,-0.11033,-0.053009,1.495021
1515625198,-0.091623,0.089481,-0.013242,0.184876,-0.311037,1.436683
1515625198,-0.084862,0.057572,-0.010046,0.441672,-0.505981,1.347677
1515625198,-0.072807,0.019394,-0.004726,0.636105,-0.581547,1.239076
1515625198,-0.056845,-0.017072,0.004993,0.751082,-0.54106,1.109571
1515625198,-0.038268,-0.053005,0.018139,0.785414,-0.420968,0.981132
1515625198,-0.012195,-0.08982,0.031032,0.73014,-0.262376,0.898011
1515625198,0.011316,-0.116262,0.039861,0.624853,-0.069432,0.861704
1515625198,0.036796,-0.135628,0.053909,0.501835,0.120757,0.872143
1515625198,0.059597,-0.148487,0.064658,0.381569,0.28162,0.927118
1515625198,0.073651,-0.151314,0.072342,0.281649,0.39438,0.997777
1515625198,0.090788,-0.156651,0.080353,0.217396,0.462678,1.057642
1515625198,0.103298,-0.160846,0.084733,0.171738,0.478949,1.105355
1515625198,0.113302,-0.160042,0.083669,0.140475,0.46787,1.126209
1515625198,0.118955,-0.156288,0.085333,0.108851,0.429559,1.102945
1515625198,0.112468,-0.145256,0.085047,0.057441,0.380922,1.041942
1515625198,0.113669,-0.149502,0.078533,-0.017497,0.285075,0.996108
1515625198,0.108854,-0.149703,0.06742,-0.107274,0.172238,1.025722
1515625198,0.104163,-0.146699,0.060335,-0.205635,0.107657,1.120962
1515625198,0.097866,-0.145018,0.058603,-0.30372,0.082012,1.262596
1515625198,0.07216,-0.130652,0.049773,-0.370947,0.066012,1.414326
1515625198,0.04247,-0.122681,0.048131,-0.368291,0.052812,1.541288
1515625198,0.023426,-0.131006,0.054194,-0.296643,0.016865,1.638892
1515625198,-0.005915,-0.135137,0.057567,-0.159816,-0.057519,1.677002
1515625198,-0.034143,-0.14138,0.064707,0.028544,-0.180891,1.639308
1515625198,-0.04907,-0.166566,0.07099,0.218736,-0.315354,1.548103
1515625198,-0.066324,-0.201981,0.077227,0.371473,-0.446823,1.455422
1515625198,-0.092346,-0.225884,0.082826,0.470225,-0.554343,1.390154
1515625198,-0.123973,-0.238045,0.088391,0.533051,-0.631554,1.360069
1515625198,-0.157184,-0.243923,0.09584,0.575033,-0.675029,1.356841
1515625198,-0.192344,-0.242814,0.102002,0.590982,-0.697492,1.372777
1515625198,-0.230843,-0.237164,0.101118,0.575893,-0.698737,1.381126
1515625198,-0.270689,-0.228456,0.096576,0.538725,-0.678344,1.352096
1515625198,-0.308714,-0.220677,0.092363,0.489502,-0.656236,1.263135
1515625198,-0.334986,-0.227274,0.082923,0.423763,-0.639035,1.130131
1515625198,-0.356563,-0.237827,0.069626,0.339036,-0.592776,0.96628
1515625198,-0.375179,-0.244436,0.056049,0.245831,-0.51973,0.786633
1515625198,-0.393993,-0.244932,0.042196,0.145959,-0.406216,0.611665
1515625198,-0.406377,-0.252797,0.02525,0.052952,-0.252462,0.470365
1515625198,-0.409712,-0.269347,0.012352,-0.014732,-0.068955,0.345749
1515625198,-0.409086,-0.272441,0.002061,-0.050136,0.097711,0.21384
1515625198,-0.415214,-0.251551,-0.005324,-0.046418,0.207301,0.057143
1515625198,-0.436965,-0.200942,-0.00799,0.001944,0.247107,-0.132971
1515625198,-0.472319,-0.127819,-0.003588,0.07648,0.207158,-0.332279
1515625198,-0.517223,-0.038698,-0.001831,0.147528,0.109109,-0.490676
1515625198,-0.566718,0.055794,-0.002329,0.202875,-0.03143,-0.580353
1515625198,-0.602673,0.12046,-0.003528,0.274282,-0.189949,-0.58355
1515625198,-0.594268,0.110741,-0.000628,0.371822,-0.373521,-0.531202
1515625198,-0.545507,0.043135,-0.00419,0.471224,-0.577808,-0.531413
1515625198,-0.483658,-0.022386,-0.01265,0.566378,-0.754367,-0.624254
1515625198,-0.425549,-0.072871,-0.018484,0.651774,-0.91196,-0.794944
1515625198,-0.383947,-0.092994,-0.027354,0.733398,-1.047681,-1.01134
1515625198,-0.368693,-0.07047,-0.03136,0.802146,-1.154528,-1.235021
1515625198,-0.370914,-0.020391,-0.033088,0.839131,-1.221537,-1.418013
1515625198,-0.373517,0.031611,-0.039221,0.817135,-1.264245,-1.520244
1515625198,-0.376495,0.074671,-0.056974,0.762129,-1.285392,-1.561736
1515625198,-0.373024,0.104539,-0.071643,0.697953,-1.264264,-1.571857
1515625198,-0.360655,0.118138,-0.087984,0.638917,-1.196185,-1.582419
1515625198,-0.32358,0.111463,-0.103706,0.592923,-1.098945,-1.618105
1515625198,-0.277472,0.089011,-0.116841,0.562275,-0.991659,-1.68446
1515625198,-0.232842,0.072618,-0.123332,0.541675,-0.852894,-1.793036
1515625198,-0.186616,0.059649,-0.121989,0.542972,-0.705006,-1.941825
1515625198,-0.138446,0.046156,-0.115668,0.553213,-0.571698,-2.114181
1515625198,-0.094012,0.040738,-0.107193,0.566685,-0.467304,-2.2783
1515625198,-0.051502,0.044001,-0.097548,0.55843,-0.39656,-2.406769
1515625198,-0.008406,0.054386,-0.089038,0.529405,-0.351972,-2.493083
1515625198,0.029072,0.071046,-0.080647,0.498839,-0.327037,-2.536937
1515625198,0.063784,0.087907,-0.071643,0.481807,-0.324906,-2.544589
1515625198,0.096554,0.10499,-0.06383,0.480553,-0.346525,-2.523503
1515625198,0.125399,0.127768,-0.059496,0.48886,-0.39169,-2.488705
1515625198,0.152804,0.152571,-0.05646,0.507795,-0.44222,-2.446369
1515625198,0.178777,0.173052,-0.053778,0.521292,-0.486428,-2.39975
1515625198,0.203386,0.190279,-0.055756,0.523011,-0.50176,-2.362537
1515625198,0.226254,0.209334,-0.054232,0.506481,-0.505482,-2.325399
1515625198,0.242737,0.225072,-0.055272,0.470563,-0.485879,-2.28714
1515625198,0.26103,0.240855,-0.054903,0.415218,-0.442935,-2.244561
1515625198,0.274944,0.262316,-0.050816,0.338262,-0.37994,-2.193454
1515625198,0.289314,0.281121,-0.050124,0.249322,-0.322549,-2.124401
1515625198,0.306482,0.292531,-0.045057,0.152756,-0.254601,-2.048905
1515625198,0.319593,0.30748,-0.040986,0.051719,-0.194347,-1.956465
1515625198,0.333199,0.31994,-0.041728,-0.060213,-0.12897,-1.851278
1515625198,0.349199,0.330647,-0.042415,-0.164673,-0.080704,-1.738732
1515625199,0.359639,0.338633,-0.042851,-0.253387,-0.012248,-1.609739
1515625199,0.366906,0.348114,-0.040302,-0.310369,0.071017,-1.45776
1515625199,0.379478,0.354684,-0.041712,-0.346994,0.142618,-1.303543
1515625199,0.394562,0.354388,-0.042768,-0.365203,0.194174,-1.158962
1515625199,0.403761,0.357931,-0.040175,-0.376712,0.227755,-1.029465
1515625199,0.413756,0.359131,-0.033412,-0.383763,0.245499,-0.907585
1515625199,0.424692,0.35602,-0.027254,-0.399324,0.235428,-0.779736
1515625199,0.427926,0.358246,-0.02457,-0.418371,0.226133,-0.631626
1515625199,0.425842,0.365939,-0.018939,-0.440642,0.213592,-0.481456
1515625199,0.421437,0.375319,-0.016568,-0.468309,0.210627,-0.331235
1515625199,0.413342,0.390736,-0.016393,-0.490594,0.201302,-0.181028
1515625199,0.400263,0.405314,-0.017902,-0.49255,0.1835,-0.027476
1515625199,0.378507,0.41831,-0.020969,-0.474246,0.159297,0.133716
1515625199,0.359618,0.420137,-0.023777,-0.438932,0.135104,0.303653
1515625199,0.343146,0.417535,-0.027645,-0.396143,0.087375,0.483007
1515625199,0.320626,0.410776,-0.035762,-0.349919,0.028078,0.649447
1515625199,0.295776,0.403458,-0.039645,-0.298013,-0.020172,0.787252
1515625199,0.271777,0.396179,-0.039546,-0.255368,-0.051021,0.890981
1515625199,0.246819,0.389465,-0.044032,-0.225005,-0.053609,0.942575
1515625199,0.220593,0.388038,-0.042903,-0.217701,-0.05909,0.958615
1515625199,0.175835,0.41245,-0.04972,-0.248849,-0.034724,0.958539
1515625199,0.123817,0.451113,-0.057014,-0.320106,-0.015303,0.998509
1515625199,0.084282,0.46184,-0.066633,-0.421316,0.004106,1.118221
1515625199,0.04808,0.461423,-0.070906,-0.532171,0.051419,1.30971
1515625199,-0.000044,0.459921,-0.074841,-0.618815,0.114564,1.526241
1515625199,-0.036595,0.437633,-0.071464,-0.720265,0.176721,1.729768
1515625199,-0.051554,0.39261,-0.071542,-0.865124,0.23371,1.899609
1515625199,-0.062955,0.339339,-0.080399,-1.029448,0.317061,1.994778
1515625199,-0.083683,0.299608,-0.085543,-1.173964,0.409454,1.965336
1515625199,-0.10638,0.266822,-0.090628,-1.271049,0.480837,1.836885
1515625199,-0.126637,0.229452,-0.094473,-1.322533,0.52944,1.667052
1515625199,-0.145831,0.205339,-0.095793,-1.351964,0.556403,1.536733
1515625199,-0.17095,0.195639,-0.102965,-1.357913,0.573951,1.495221
1515625199,-0.201913,0.193065,-0.109317,-1.342547,0.595921,1.539455
1515625199,-0.227366,0.185996,-0.113101,-1.283985,0.61754,1.63546
1515625199,-0.248383,0.166191,-0.114823,-1.185839,0.631841,1.735053
1515625199,-0.263507,0.146549,-0.117458,-1.049627,0.621146,1.79742
1515625199,-0.273411,0.127095,-0.120161,-0.872837,0.594425,1.791723
1515625199,-0.275521,0.102194,-0.116169,-0.679007,0.562227,1.713541
1515625199,-0.264675,0.069204,-0.106239,-0.484567,0.550933,1.582218
1515625199,-0.242166,0.027062,-0.087288,-0.318824,0.552512,1.431486
1515625199,-0.21636,-0.017261,-0.067299,-0.198125,0.545198,1.29079
1515625199,-0.18578,-0.063393,-0.046827,-0.131351,0.519025,1.187675
1515625199,-0.150773,-0.102669,-0.029356,-0.095934,0.480616,1.112874
1515625199,-0.117027,-0.134253,-0.010791,-0.07997,0.444092,1.051748
1515625199,-0.08596,-0.16066,0.006588,-0.057696,0.394637,1.003358
1515625199,-0.064526,-0.178656,0.02012,-0.029036,0.343014,0.958224
1515625199,-0.049734,-0.186688,0.031775,-0.02324,0.332727,0.928266
1515625199,-0.035377,-0.193617,0.039773,-0.030538,0.340376,0.911182
1515625199,-0.020167,-0.203918,0.044479,-0.052939,0.355316,0.900416
1515625199,-0.013195,-0.207683,0.04803,-0.088081,0.382056,0.877893
1515625199,-0.009856,-0.210355,0.051842,-0.131321,0.418804,0.816947
1515625199,-0.000511,-0.227706,0.062099,-0.164711,0.475077,0.732857
1515625199,0.007664,-0.248675,0.078927,-0.20491,0.526687,0.679602
1515625199,0.006011,-0.259892,0.092459,-0.268116,0.559497,0.672838
1515625199,-0.004105,-0.261632,0.099959,-0.32073,0.56763,0.682991
1515625199,-0.016528,-0.26332,0.108781,-0.363896,0.530682,0.722615
1515625199,-0.034461,-0.262583,0.1136,-0.397859,0.488035,0.796456
1515625199,-0.05092,-0.257661,0.113085,-0.412637,0.407933,0.889299
1515625199,-0.061655,-0.262814,0.10734,-0.388482,0.295193,0.962987
1515625199,-0.076882,-0.266879,0.105958,-0.325373,0.184109,1.00405
1515625199,-0.097444,-0.270412,0.098882,-0.228651,0.075732,1.01137
1515625199,-0.113473,-0.283467,0.091569,-0.112051,-0.030927,0.971956
1515625199,-0.125549,-0.302054,0.09136,-0.000678,-0.127865,0.919782
1515625199,-0.138212,-0.313844,0.092236,0.078386,-0.211233,0.878066
1515625199,-0.15971,-0.313238,0.089219,0.129344,-0.270361,0.849124
1515625199,-0.186491,-0.306202,0.088528,0.157429,-0.298892,0.839502
1515625199,-0.212931,-0.300132,0.087303,0.171548,-0.315772,0.829855
1515625199,-0.239118,-0.292633,0.085539,0.176083,-0.318746,0.811718
1515625199,-0.262694,-0.285216,0.084877,0.174472,-0.325785,0.774235
1515625199,-0.28386,-0.279983,0.081273,0.164517,-0.333764,0.720622
1515625199,-0.299223,-0.277406,0.073374,0.139595,-0.33858,0.664733
1515625199,-0.313537,-0.273303,0.065779,0.101948,-0.326229,0.593948
1515625199,-0.326112,-0.26837,0.055979,0.068755,-0.296558,0.504201
1515625199,-0.33402,-0.268785,0.051965,0.028016,-0.230519,0.406255
1515625199,-0.343039,-0.264328,0.040694,-0.026774,-0.135798,0.30849
1515625199,-0.348856,-0.259171,0.027156,-0.081287,-0.016225,0.181127
1515625199,-0.343294,-0.264372,0.022697,-0.133351,0.101519,0.031341
1515625199,-0.348789,-0.255357,0.01588,-0.191637,0.201204,-0.127281
1515625199,-0.374394,-0.211124,0.011132,-0.235036,0.273029,-0.268973
1515625199,-0.404789,-0.153109,0.009236,-0.244653,0.286792,-0.355428
1515625199,-0.433989,-0.098195,0.006619,-0.222743,0.24237,-0.37813
1515625199,-0.463281,-0.045817,0.003598,-0.157405,0.15174,-0.350679
1515625199,-0.488431,-0.011328,-0.00154,-0.048009,0.02186,-0.323175
1515625199,-0.48418,-0.013536,-0.006673,0.086716,-0.145825,-0.336408
1515625199,-0.461289,-0.050445,-0.020304,0.21612,-0.332908,-0.425766
1515625199,-0.434697,-0.08784,-0.035198,0.327343,-0.496642,-0.604768
1515625199,-0.405225,-0.114171,-0.044972,0.422048,-0.623512,-0.842262
1515625199,-0.389617,-0.114402,-0.054846,0.492972,-0.705731,-1.077365
1515625199,-0.390531,-0.079215,-0.06606,0.550269,-0.744802,-1.268323
1515625199,-0.396184,-0.03137,-0.069057,0.60098,-0.73573,-1.382953
1515625199,-0.400811,0.011838,-0.070574,0.631426,-0.718007,-1.425097
1515625199,-0.402987,0.05143,-0.076368,0.659285,-0.704981,-1.432084
1515625199,-0.388803,0.072409,-0.076417,0.69812,-0.710929,-1.453054
1515625199,-0.363157,0.078818,-0.075304,0.732086,-0.737905,-1.50317
1515625199,-0.330983,0.078047,-0.077334,0.760909,-0.778644,-1.564193
1515625199,-0.29888,0.079828,-0.079403,0.780243,-0.810768,-1.639106
1515625199,-0.267768,0.083518,-0.079775,0.797571,-0.828831,-1.728828
1515625199,-0.23213,0.083204,-0.079086,0.810552,-0.841594,-1.815336
1515625199,-0.19694,0.081354,-0.080671,0.821267,-0.845938,-1.895359
1515625199,-0.159141,0.084183,-0.080266,0.821064,-0.834464,-1.964642
1515625200,-0.120871,0.089142,-0.080554,0.812071,-0.798603,-2.025192
1515625200,-0.084084,0.095929,-0.08052,0.80299,-0.764954,-2.078295
1515625200,-0.045251,0.100667,-0.080682,0.787203,-0.725173,-2.112178
1515625200,-0.007287,0.10692,-0.079891,0.775477,-0.678088,-2.132041
1515625200,0.029946,0.11596,-0.077654,0.771083,-0.633226,-2.139029
1515625200,0.065996,0.124424,-0.075453,0.772066,-0.596875,-2.144988
1515625200,0.097494,0.135685,-0.072833,0.776324,-0.574379,-2.151074
1515625200,0.126692,0.149461,-0.070609,0.780627,-0.566818,-2.155205
1515625200,0.154534,0.163666,-0.067496,0.779827,-0.573011,-2.173445
1515625200,0.180712,0.181745,-0.063412,0.767304,-0.578216,-2.196079
1515625200,0.200848,0.200239,-0.061614,0.729905,-0.568725,-2.203885
1515625200,0.216643,0.219202,-0.059499,0.678254,-0.540286,-2.192412
1515625200,0.230481,0.23725,-0.057315,0.61555,-0.498335,-2.159545
1515625200,0.239147,0.25484,-0.053574,0.542978,-0.444845,-2.112773
1515625200,0.247601,0.277032,-0.051581,0.45737,-0.386259,-2.053278
1515625200,0.258403,0.300382,-0.048654,0.371598,-0.335332,-1.978924
1515625200,0.267749,0.32103,-0.045434,0.290005,-0.301593,-1.890845
1515625200,0.2758,0.344431,-0.044104,0.220026,-0.276497,-1.787781
1515625200,0.289364,0.362076,-0.04399,0.166099,-0.269527,-1.678336
1515625200,0.304627,0.36634,-0.041766,0.126195,-0.265616,-1.576236
1515625200,0.31381,0.375462,-0.039337,0.087419,-0.26163,-1.478394
1515625200,0.31971,0.383379,-0.037276,0.045347,-0.233086,-1.382434
1515625200,0.325066,0.388043,-0.035437,-0.026659,-0.196122,-1.292066
1515625200,0.32624,0.397743,-0.037226,-0.116851,-0.153873,-1.203988
1515625200,0.324017,0.405541,-0.040005,-0.209233,-0.110627,-1.112719
1515625200,0.321667,0.418211,-0.040559,-0.299667,-0.056852,-1.010619
1515625200,0.317807,0.432053,-0.041241,-0.382717,-0.007395,-0.898872
1515625200,0.310977,0.445839,-0.040335,-0.449978,0.050525,-0.769752
1515625200,0.30122,0.463602,-0.038926,-0.508999,0.112447,-0.618054
1515625200,0.286349,0.485701,-0.03667,-0.543567,0.165781,-0.451217
1515625200,0.277479,0.493395,-0.03481,-0.550218,0.17865,-0.277061
1515625200,0.275288,0.489406,-0.031723,-0.530974,0.160752,-0.108304
1515625200,0.270101,0.486167,-0.033146,-0.494323,0.128232,0.044461
1515625200,0.270905,0.474361,-0.034238,-0.456221,0.084295,0.17254
1515625200,0.278098,0.451286,-0.034856,-0.403891,0.044975,0.275215
1515625200,0.286854,0.431509,-0.033139,-0.347102,0.018678,0.359944
1515625200,0.291173,0.418794,-0.026634,-0.302167,0.004038,0.446808
1515625200,0.276444,0.429603,-0.020568,-0.299121,0.010479,0.537699
1515625200,0.24093,0.466057,-0.01416,-0.342492,0.027016,0.654861
1515625200,0.20634,0.495183,-0.012916,-0.433374,0.050447,0.801442
1515625200,0.192032,0.502904,-0.018595,-0.554213,0.051211,0.954873
1515625200,0.180869,0.500207,-0.028944,-0.68332,0.058584,1.083723
1515625200,0.164169,0.502585,-0.041917,-0.815424,0.099364,1.18517
1515625200,0.141178,0.504756,-0.059882,-0.942269,0.180827,1.279692
1515625200,0.123236,0.496187,-0.076519,-1.058639,0.294245,1.380065
1515625200,0.1156,0.471683,-0.088309,-1.152926,0.423463,1.504389
1515625200,0.112271,0.4355,-0.095328,-1.214158,0.542078,1.641791
1515625200,0.10817,0.392992,-0.094387,-1.240048,0.642693,1.783668
1515625200,0.100708,0.355125,-0.088852,-1.237539,0.702197,1.896552
1515625200,0.089963,0.325381,-0.082146,-1.208506,0.721881,1.960145
1515625200,0.070113,0.306311,-0.075315,-1.161505,0.69742,1.975361
1515625200,0.042936,0.29924,-0.070334,-1.103346,0.639128,1.967875
1515625200,0.013498,0.296657,-0.068557,-1.04288,0.552093,1.957934
1515625200,-0.016604,0.29645,-0.069624,-0.983481,0.458662,1.950037
1515625200,-0.045205,0.296474,-0.071619,-0.929478,0.371556,1.943222
1515625200,-0.074124,0.294042,-0.076447,-0.890855,0.32042,1.953746
1515625200,-0.104663,0.292231,-0.086906,-0.888926,0.317031,1.970816
1515625200,-0.129347,0.285809,-0.100946,-0.909439,0.373551,1.964843
1515625200,-0.140192,0.267646,-0.109147,-0.95014,0.488981,1.927302
1515625200,-0.141306,0.241973,-0.113228,-0.991917,0.650439,1.874284
1515625200,-0.132792,0.208577,-0.110936,-1.020996,0.830065,1.825906
1515625200,-0.117854,0.167687,-0.10105,-1.01255,0.997062,1.776757
1515625200,-0.097789,0.122499,-0.082289,-0.969735,1.117258,1.734926
1515625200,-0.072899,0.073543,-0.056075,-0.916091,1.180895,1.70322
1515625200,-0.052597,0.030738,-0.035586,-0.867524,1.195438,1.667661
1515625200,-0.039654,-0.0047,-0.014115,-0.817536,1.171739,1.618842
1515625200,-0.024543,-0.043384,0.008034,-0.77683,1.122592,1.552519
1515625200,-0.011389,-0.076526,0.025559,-0.756507,1.072241,1.490211
1515625200,-0.00511,-0.099711,0.039834,-0.761237,1.034203,1.456589
1515625200,-0.007926,-0.120347,0.052309,-0.769445,1.004463,1.440115
1515625200,-0.011847,-0.143904,0.066179,-0.774578,0.985349,1.430212
1515625200,-0.017109,-0.161065,0.08016,-0.793895,0.966976,1.440442
1515625200,-0.030659,-0.173388,0.085071,-0.84151,0.953405,1.484568
1515625200,-0.04546,-0.181026,0.084968,-0.900229,0.94481,1.557455
1515625200,-0.062818,-0.1869,0.084834,-0.963415,0.92421,1.648302
1515625200,-0.082072,-0.191444,0.080324,-1.009196,0.876072,1.727279
1515625200,-0.103307,-0.195529,0.076137,-1.020313,0.7996,1.784965
1515625200,-0.131094,-0.197439,0.069055,-0.991426,0.70229,1.819379
1515625200,-0.162261,-0.204299,0.060622,-0.929092,0.594675,1.83698
1515625200,-0.191208,-0.214023,0.051709,-0.833272,0.477869,1.834576
1515625200,-0.216079,-0.227762,0.043522,-0.716027,0.36227,1.830305
1515625200,-0.241189,-0.242521,0.035062,-0.579366,0.246924,1.81452
1515625200,-0.26386,-0.25994,0.032242,-0.431657,0.147994,1.767025
1515625200,-0.279932,-0.284934,0.031707,-0.297004,0.085211,1.723014
1515625200,-0.302936,-0.300573,0.029744,-0.182987,0.062764,1.687788
1515625200,-0.327456,-0.308454,0.030521,-0.08623,0.055125,1.657872
1515625200,-0.345015,-0.316114,0.032588,-0.014037,0.039876,1.626507
1515625200,-0.359285,-0.323035,0.035672,0.042419,0.011951,1.57558
1515625200,-0.378076,-0.324734,0.038389,0.0875,-0.027449,1.498747
1515625200,-0.388766,-0.330194,0.044377,0.133879,-0.061303,1.402773
1515625200,-0.405206,-0.33356,0.050315,0.14485,-0.045069,1.296301
1515625200,-0.425442,-0.325097,0.051851,0.108625,0.03403,1.17614
1515625200,-0.449443,-0.311458,0.052752,0.045491,0.184595,1.042638
1515625200,-0.474129,-0.308525,0.056356,-0.050748,0.36289,0.894124
1515625200,-0.489525,-0.310209,0.053685,-0.193984,0.5528,0.734512
1515625200,-0.498387,-0.315158,0.052438,-0.360897,0.734958,0.587341
1515625200,-0.502018,-0.324893,0.052019,-0.521461,0.881752,0.457975
1515625200,-0.506882,-0.332728,0.047513,-0.634983,1.007328,0.339593
1515625200,-0.503599,-0.342052,0.043881,-0.694764,1.083061,0.221249
1515625200,-0.498383,-0.345016,0.034225,-0.717821,1.111099,0.094222
1515625200,-0.505102,-0.319966,0.020747,-0.703256,1.091273,-0.028661
1515625201,-0.523566,-0.274153,0.008864,-0.636183,1.005393,-0.133561
1515625201,-0.548589,-0.225427,-0.002381,-0.509221,0.849092,-0.210829
1515625201,-0.574346,-0.173788,-0.010332,-0.332986,0.630939,-0.270098
1515625201,-0.600405,-0.12826,-0.016385,-0.106505,0.366982,-0.309033
1515625201,-0.613402,-0.111723,-0.019489,0.143629,0.082923,-0.348998
1515625201,-0.604943,-0.124529,-0.024298,0.386453,-0.186046,-0.40809
1515625201,-0.585247,-0.156761,-0.031273,0.592048,-0.40361,-0.502248
1515625201,-0.56805,-0.187597,-0.037398,0.774541,-0.540567,-0.657654
1515625201,-0.547597,-0.21242,-0.03436,0.941578,-0.608532,-0.881831
1515625201,-0.515055,-0.231917,-0.021136,1.08896,-0.63423,-1.171947
1515625201,-0.488032,-0.235888,0.00208,1.19072,-0.634083,-1.500745
1515625201,-0.46962,-0.208252,0.028387,1.226054,-0.650456,-1.81878
1515625201,-0.460915,-0.158543,0.053505,1.191218,-0.683817,-2.085522
1515625201,-0.460397,-0.092045,0.07792,1.118349,-0.711451,-2.310996
1515625201,-0.459293,-0.017326,0.097572,1.003168,-0.731294,-2.496293
1515625201,-0.45243,0.05163,0.105075,0.851982,-0.735825,-2.634845
1515625201,-0.443193,0.113731,0.103654,0.689488,-0.704501,-2.739996
1515625201,-0.422588,0.164353,0.097488,0.534258,-0.664802,-2.831073
1515625201,-0.398242,0.205031,0.089354,0.406827,-0.599269,-2.928984
1515625201,-0.370691,0.24905,0.083487,0.310516,-0.516361,-3.039132
1515625201,-0.344146,0.288827,0.07821,0.242975,-0.41738,-3.145538
1515625201,-0.310811,0.318707,0.078353,0.205152,-0.310924,-3.235484
1515625201,-0.271582,0.346195,0.084961,0.191492,-0.184369,-3.298202
1515625201,-0.227695,0.371229,0.097464,0.181633,-0.076443,-3.318379
1515625201,-0.179895,0.388267,0.105607,0.160875,-0.019072,-3.306189
1515625201,-0.129472,0.397887,0.116846,0.144432,-0.002366,-3.282688
1515625201,-0.07624,0.403662,0.133235,0.131018,-0.000782,-3.24011
1515625201,-0.027136,0.405457,0.140707,0.092743,0.011145,-3.18275
1515625201,0.01623,0.401633,0.143251,0.028687,0.022839,-3.118223
1515625201,0.054121,0.402307,0.143333,-0.037457,0.023867,-3.05385
1515625201,0.088242,0.407268,0.143652,-0.07355,0.017611,-2.993478
1515625201,0.116824,0.413969,0.145484,-0.072173,-0.024826,-2.92135
1515625201,0.135468,0.42616,0.147532,-0.038754,-0.092835,-2.835267
1515625201,0.155672,0.442172,0.145228,0.006483,-0.18004,-2.746069
1515625201,0.176529,0.461312,0.144898,0.05808,-0.269395,-2.651482
1515625201,0.192289,0.480982,0.14559,0.111605,-0.358939,-2.540854
1515625201,0.210962,0.489276,0.143681,0.126278,-0.44469,-2.407148
1515625201,0.226456,0.496238,0.134981,0.121667,-0.508071,-2.279808
1515625201,0.240107,0.500736,0.127868,0.095776,-0.546873,-2.170578
1515625201,0.257182,0.5022,0.122428,0.051775,-0.551373,-2.079308
1515625201,0.271382,0.50499,0.113366,-0.016966,-0.52822,-1.988003
1515625201,0.28611,0.504187,0.101569,-0.099869,-0.479704,-1.886946
1515625201,0.298163,0.504405,0.092167,-0.184014,-0.409928,-1.780308
1515625201,0.310366,0.505356,0.087401,-0.24884,-0.346422,-1.675652
1515625201,0.324483,0.50846,0.083676,-0.290981,-0.307277,-1.578492
1515625201,0.335416,0.512604,0.083274,-0.318274,-0.272424,-1.469463
1515625201,0.351049,0.513943,0.085429,-0.336226,-0.242049,-1.336882
1515625201,0.366489,0.509554,0.083156,-0.355538,-0.219447,-1.179846
1515625201,0.376207,0.503863,0.079876,-0.376051,-0.195872,-1.013203
1515625201,0.384161,0.49607,0.076801,-0.398531,-0.173249,-0.859409
1515625201,0.393764,0.478545,0.072687,-0.431363,-0.149293,-0.732422
1515625201,0.402359,0.459766,0.070947,-0.466123,-0.128382,-0.620445
1515625201,0.408865,0.445865,0.069617,-0.514788,-0.103283,-0.510717
1515625201,0.411367,0.438458,0.068446,-0.573251,-0.078354,-0.388294
1515625201,0.407928,0.433308,0.070678,-0.629859,-0.047249,-0.24655
1515625201,0.40305,0.427149,0.071331,-0.694329,-0.01222,-0.078154
1515625201,0.393699,0.421367,0.07252,-0.758948,-0.005142,0.111262
1515625201,0.374537,0.408042,0.067728,-0.779291,-0.059629,0.291921
1515625201,0.355309,0.383574,0.062365,-0.758055,-0.160194,0.420186
1515625201,0.340384,0.362202,0.055806,-0.713418,-0.263054,0.479285
1515625201,0.324148,0.346056,0.045206,-0.687738,-0.341162,0.506421
1515625201,0.305752,0.334046,0.026085,-0.708351,-0.356513,0.53269
1515625201,0.293131,0.322282,0.011188,-0.777785,-0.284878,0.578651
1515625201,0.278992,0.320573,-0.001121,-0.886363,-0.172225,0.65668
1515625201,0.252455,0.338048,-0.010617,-1.0136,-0.04721,0.765605
1515625201,0.217404,0.372749,-0.016598,-1.151736,0.059346,0.89554
1515625201,0.181054,0.407579,-0.026206,-1.290945,0.145527,1.032694
1515625201,0.146256,0.435233,-0.036718,-1.423364,0.213876,1.148354
1515625201,0.107632,0.466612,-0.050078,-1.559557,0.262325,1.232755
1515625201,0.072018,0.498307,-0.068393,-1.723349,0.302233,1.302844
1515625201,0.04126,0.520986,-0.090943,-1.916314,0.370602,1.383613
1515625201,0.025708,0.513799,-0.115435,-2.10848,0.458074,1.478501
1515625201,0.020489,0.485039,-0.135632,-2.249282,0.564049,1.567812
1515625201,0.016635,0.446684,-0.146113,-2.317864,0.666556,1.619495
1515625201,0.011084,0.416189,-0.15067,-2.334572,0.769825,1.633352
1515625201,0.002199,0.396462,-0.153528,-2.314274,0.854518,1.606846
1515625201,-0.008222,0.385385,-0.156324,-2.287359,0.924409,1.570629
1515625201,-0.020375,0.385377,-0.157442,-2.266888,0.972838,1.543688
1515625201,-0.033862,0.390893,-0.155694,-2.247564,0.992265,1.532404
1515625201,-0.044494,0.394991,-0.151882,-2.20811,0.985922,1.545613
1515625201,-0.056182,0.395335,-0.148183,-2.142236,0.953721,1.592999
1515625201,-0.068171,0.389828,-0.146218,-2.060718,0.914815,1.673597
1515625201,-0.082066,0.378506,-0.143893,-1.973132,0.887416,1.776834
1515625201,-0.095718,0.355392,-0.143895,-1.866281,0.877255,1.8741
1515625201,-0.100275,0.324277,-0.140369,-1.7366,0.89001,1.93667
1515625201,-0.093086,0.277546,-0.133505,-1.593642,0.909658,1.964237
1515625201,-0.077183,0.221011,-0.121817,-1.456658,0.930736,1.957575
1515625201,-0.058844,0.165425,-0.107257,-1.345043,0.948747,1.928147
1515625201,-0.038779,0.112842,-0.089436,-1.259963,0.95074,1.887531
1515625201,-0.021735,0.061356,-0.073112,-1.207883,0.931294,1.840924
1515625201,-0.006867,0.012873,-0.054619,-1.173854,0.915093,1.782395
1515625201,0.005768,-0.026429,-0.033544,-1.153833,0.880522,1.737361
1515625201,0.010598,-0.057943,-0.020417,-1.143592,0.832947,1.708072
1515625201,0.011066,-0.079117,-0.010319,-1.14001,0.790451,1.694787
1515625201,0.016245,-0.096602,-0.003383,-1.150404,0.746749,1.686662
1515625201,0.020453,-0.115571,-0.000235,-1.180254,0.73491,1.681893
1515625201,0.017282,-0.127153,0.000173,-1.234838,0.763517,1.671978
1515625201,0.010004,-0.138469,-0.005611,-1.312053,0.826156,1.662203
1515625201,-0.001948,-0.146566,-0.012257,-1.414106,0.918459,1.658897
1515625201,-0.01905,-0.144291,-0.021035,-1.527065,1.018019,1.668366
1515625201,-0.041578,-0.137584,-0.030266,-1.626261,1.103565,1.693851
1515625201,-0.070535,-0.126187,-0.035999,-1.704066,1.167824,1.727875
1515625202,-0.10113,-0.117641,-0.042401,-1.747536,1.204545,1.765177
1515625202,-0.133117,-0.110677,-0.048454,-1.750176,1.208375,1.801503
1515625202,-0.166401,-0.105935,-0.053885,-1.700268,1.194387,1.836102
1515625202,-0.193972,-0.108768,-0.054447,-1.620274,1.183865,1.860421
1515625202,-0.214515,-0.119162,-0.057445,-1.516331,1.147024,1.863351
1515625202,-0.231055,-0.13222,-0.05738,-1.398296,1.093305,1.858767
1515625202,-0.247808,-0.150019,-0.053638,-1.269285,1.002396,1.846389
1515625202,-0.263106,-0.167746,-0.050885,-1.13919,0.899726,1.837087
1515625202,-0.287836,-0.179957,-0.044792,-1.008026,0.808822,1.823669
1515625202,-0.316845,-0.189124,-0.040735,-0.870448,0.743672,1.802092
1515625202,-0.340285,-0.203649,-0.028598,-0.734964,0.707462,1.766955
1515625202,-0.366915,-0.215212,-0.016869,-0.634165,0.716745,1.749041
1515625202,-0.39399,-0.222423,-0.007648,-0.567721,0.743973,1.73307
1515625202,-0.415464,-0.231652,0.00279,-0.534226,0.774424,1.698591
1515625202,-0.430158,-0.246402,0.014374,-0.534823,0.803792,1.653012
1515625202,-0.449391,-0.256462,0.022267,-0.555663,0.828812,1.601803
1515625202,-0.473633,-0.265343,0.023584,-0.576116,0.861656,1.518654
1515625202,-0.493492,-0.281327,0.030159,-0.582938,0.898499,1.374839
1515625202,-0.508624,-0.302299,0.037886,-0.57428,0.988334,1.175244
1515625202,-0.523917,-0.324226,0.051899,-0.574224,1.123084,0.963272
1515625202,-0.53051,-0.352575,0.060806,-0.618323,1.299127,0.75768
1515625202,-0.531297,-0.371479,0.068555,-0.717168,1.469377,0.566319
1515625202,-0.541283,-0.358126,0.070399,-0.846891,1.589247,0.380393
1515625202,-0.565464,-0.312291,0.072333,-0.945558,1.635408,0.218511
1515625202,-0.594718,-0.258435,0.079618,-0.955532,1.558768,0.109603
1515625202,-0.619295,-0.217127,0.085299,-0.846019,1.381737,0.063917
1515625202,-0.639662,-0.19921,0.093231,-0.629794,1.133264,0.066697
1515625202,-0.649509,-0.204224,0.100223,-0.35221,0.828644,0.062056
1515625202,-0.642004,-0.237217,0.10358,-0.076028,0.520366,0.002888
1515625202,-0.625822,-0.279301,0.103244,0.143325,0.265132,-0.147096
1515625202,-0.604337,-0.318438,0.107992,0.315514,0.075851,-0.3951
1515625202,-0.578961,-0.353772,0.119207,0.434802,-0.025338,-0.719567
1515625202,-0.554939,-0.368128,0.137748,0.486801,-0.051802,-1.080244
1515625202,-0.5409,-0.351604,0.157347,0.454963,-0.029755,-1.430654
1515625202,-0.541429,-0.305339,0.173049,0.33954,0.055103,-1.714021
1515625202,-0.543445,-0.234474,0.184031,0.171656,0.164394,-1.924024
1515625202,-0.54151,-0.169136,0.191924,0.003087,0.270894,-2.081734
1515625202,-0.533284,-0.109342,0.200741,-0.153739,0.345339,-2.225811
1515625202,-0.518468,-0.047294,0.203189,-0.286951,0.375015,-2.359468
1515625202,-0.505271,0.008729,0.201693,-0.38584,0.384562,-2.49189
1515625202,-0.485587,0.053281,0.201584,-0.457783,0.35586,-2.62552
1515625202,-0.467503,0.099775,0.191549,-0.512579,0.321918,-2.759009
1515625202,-0.447331,0.146084,0.18366,-0.540773,0.29223,-2.882517
1515625202,-0.420976,0.181574,0.176215,-0.542238,0.264842,-3.004613
1515625202,-0.391437,0.213284,0.171565,-0.52459,0.244914,-3.117849
1515625202,-0.35819,0.245139,0.170916,-0.494293,0.235601,-3.220127
1515625202,-0.322994,0.275414,0.173856,-0.46639,0.232497,-3.305273
1515625202,-0.285907,0.306977,0.177665,-0.446336,0.238657,-3.366903
1515625202,-0.24328,0.334787,0.182099,-0.440514,0.253045,-3.407245
1515625202,-0.199906,0.356081,0.191511,-0.447795,0.274613,-3.430568
1515625202,-0.156928,0.377027,0.201536,-0.472374,0.279886,-3.43507
1515625202,-0.110252,0.39284,0.209366,-0.508927,0.270975,-3.419592
1515625202,-0.062878,0.399582,0.212517,-0.552178,0.257477,-3.381819
1515625202,-0.02304,0.403438,0.213835,-0.593476,0.256701,-3.33426
1515625202,0.008517,0.412095,0.214003,-0.620838,0.253881,-3.287628
1515625202,0.036934,0.421832,0.210405,-0.623418,0.248124,-3.252485
1515625202,0.060651,0.434793,0.211566,-0.608947,0.239184,-3.210769
1515625202,0.080643,0.448458,0.208884,-0.587254,0.215048,-3.14352
1515625202,0.102197,0.457718,0.202245,-0.557307,0.169286,-3.045462
1515625202,0.12105,0.469641,0.196992,-0.506054,0.110675,-2.935557
1515625202,0.140197,0.483506,0.194256,-0.433393,0.023246,-2.816132
1515625202,0.159756,0.493298,0.186599,-0.341477,-0.080138,-2.690263
1515625202,0.181652,0.496438,0.181558,-0.256283,-0.155964,-2.551327
1515625202,0.205331,0.494855,0.175031,-0.198004,-0.221374,-2.40404
1515625202,0.224846,0.491297,0.165581,-0.171856,-0.26877,-2.261191
1515625202,0.251144,0.484511,0.16247,-0.171308,-0.313034,-2.126083
1515625202,0.277312,0.47158,0.155303,-0.194574,-0.326596,-1.981276
1515625202,0.299123,0.459594,0.151911,-0.233977,-0.333877,-1.832315
1515625202,0.319251,0.451435,0.150561,-0.270206,-0.330463,-1.684255
1515625202,0.338897,0.438453,0.154779,-0.297416,-0.345877,-1.564082
1515625202,0.359852,0.424982,0.153931,-0.309426,-0.383496,-1.452541
1515625202,0.377433,0.410753,0.1568,-0.326863,-0.431937,-1.331582
1515625202,0.386815,0.39856,0.153091,-0.373324,-0.471033,-1.204445
1515625202,0.391152,0.389929,0.14611,-0.448587,-0.489823,-1.091292
1515625202,0.389839,0.388915,0.139042,-0.534455,-0.486028,-0.99295
1515625202,0.382429,0.393509,0.130514,-0.623704,-0.47711,-0.883901
1515625202,0.370037,0.39812,0.117511,-0.705621,-0.471549,-0.761986
1515625202,0.357535,0.39992,0.103252,-0.778854,-0.443299,-0.656787
1515625202,0.337428,0.39924,0.090123,-0.825944,-0.413428,-0.5865
1515625202,0.32207,0.389309,0.078747,-0.878107,-0.385486,-0.536589
1515625202,0.324375,0.368036,0.060523,-0.963497,-0.342755,-0.487963
1515625202,0.318991,0.359706,0.045278,-1.088771,-0.274801,-0.426691
1515625202,0.317095,0.356881,0.031184,-1.2305,-0.166585,-0.349109
1515625202,0.322502,0.348512,0.02161,-1.385472,-0.039516,-0.247963
1515625202,0.325795,0.342445,0.009962,-1.541871,0.103306,-0.125285
1515625202,0.318326,0.350035,0.001664,-1.698609,0.260813,0.017859
1515625202,0.297203,0.371441,-0.002936,-1.859866,0.390216,0.188379
1515625202,0.267355,0.393981,-0.016912,-2.030773,0.473516,0.376384
1515625202,0.235812,0.418571,-0.030083,-2.198982,0.51129,0.538239
1515625202,0.198646,0.452391,-0.043972,-2.346188,0.505827,0.664581
1515625202,0.162695,0.490799,-0.059976,-2.47279,0.474967,0.779118
1515625202,0.137401,0.507091,-0.074469,-2.557781,0.437831,0.905819
1515625202,0.122447,0.495662,-0.090187,-2.577445,0.395744,1.031099
1515625202,0.114504,0.474816,-0.10102,-2.527503,0.351909,1.153982
1515625202,0.104459,0.452681,-0.105738,-2.406622,0.299098,1.257308
1515625202,0.092014,0.439151,-0.109522,-2.241592,0.244604,1.340847
1515625202,0.080003,0.428697,-0.112212,-2.058281,0.212755,1.409926
1515625202,0.069596,0.421046,-0.114029,-1.892128,0.197944,1.475801
1515625202,0.055069,0.412668,-0.117218,-1.75602,0.201143,1.541533
1515625202,0.0428,0.405914,-0.12056,-1.662876,0.213583,1.615413
1515625202,0.032669,0.400093,-0.125507,-1.599549,0.216342,1.681346
1515625203,0.021211,0.40089,-0.126031,-1.552186,0.212681,1.74274
1515625203,0.009437,0.398343,-0.124764,-1.499361,0.203811,1.797726
1515625203,-0.001189,0.389848,-0.127641,-1.441091,0.204672,1.842216
1515625203,-0.009865,0.37735,-0.131977,-1.37861,0.244059,1.878676
1515625203,-0.012554,0.35197,-0.135649,-1.320342,0.3049,1.902528
1515625203,-0.010141,0.321482,-0.138676,-1.26935,0.394781,1.899947
1515625203,0.000494,0.280081,-0.137782,-1.233228,0.48257,1.889685
1515625203,0.015855,0.232096,-0.135038,-1.213146,0.579921,1.875077
1515625203,0.032891,0.184671,-0.124311,-1.196252,0.66978,1.861408
1515625203,0.049382,0.135706,-0.109919,-1.189037,0.745616,1.855999
1515625203,0.057818,0.094997,-0.09751,-1.190187,0.789454,1.846902
1515625203,0.063554,0.060692,-0.082518,-1.195387,0.81209,1.827886
1515625203,0.063163,0.029571,-0.06912,-1.216474,0.829394,1.79794
1515625203,0.058866,0.001298,-0.060498,-1.266378,0.854073,1.7592
1515625203,0.052074,-0.019138,-0.055163,-1.344011,0.892651,1.708547
1515625203,0.036541,-0.031103,-0.051499,-1.453913,0.939471,1.667222
1515625203,0.019453,-0.039149,-0.051351,-1.579091,0.99453,1.645038
1515625203,0.003945,-0.0485,-0.05474,-1.708734,1.05906,1.633593
1515625203,-0.010187,-0.056033,-0.056888,-1.808618,1.148184,1.629208
1515625203,-0.028698,-0.062104,-0.057747,-1.894897,1.247818,1.644334
1515625203,-0.04345,-0.073639,-0.058903,-1.96839,1.347473,1.663884
1515625203,-0.054254,-0.08449,-0.05955,-2.030143,1.430044,1.691911
1515625203,-0.068268,-0.091935,-0.060388,-2.082189,1.472014,1.728109
1515625203,-0.089626,-0.098021,-0.061677,-2.110761,1.474396,1.783334
1515625203,-0.113468,-0.103588,-0.062254,-2.097426,1.422546,1.844811
1515625203,-0.137891,-0.108234,-0.064073,-2.038893,1.329406,1.902055
1515625203,-0.163955,-0.111468,-0.067398,-1.950202,1.22158,1.94987
1515625203,-0.192999,-0.114033,-0.070431,-1.8453,1.118231,1.98405
1515625203,-0.218653,-0.122597,-0.075712,-1.722996,1.028108,1.992962
1515625203,-0.240737,-0.134082,-0.080539,-1.599437,0.934959,1.989035
1515625203,-0.26196,-0.151435,-0.086333,-1.498351,0.859882,1.978652
1515625203,-0.287066,-0.162199,-0.093169,-1.421966,0.818897,1.963045
1515625203,-0.314365,-0.169003,-0.097608,-1.360741,0.81835,1.946678
1515625203,-0.337091,-0.182415,-0.100897,-1.326491,0.864592,1.930554
1515625203,-0.357642,-0.19143,-0.102853,-1.306238,0.94389,1.909322
1515625203,-0.377484,-0.201742,-0.100828,-1.290314,1.03917,1.886097
1515625203,-0.391585,-0.21746,-0.09338,-1.26237,1.124039,1.847935
1515625203,-0.407796,-0.22469,-0.084156,-1.212905,1.186629,1.808694
1515625203,-0.423695,-0.233476,-0.071474,-1.141522,1.209093,1.744666
1515625203,-0.437888,-0.241296,-0.0617,-1.030027,1.19155,1.656068
1515625203,-0.450466,-0.257695,-0.049181,-0.899952,1.115511,1.558444
1515625203,-0.46996,-0.268572,-0.04235,-0.781503,1.011679,1.45928
1515625203,-0.496521,-0.272351,-0.037305,-0.683189,0.887576,1.352156
1515625203,-0.519729,-0.27712,-0.035837,-0.630109,0.785452,1.258644
1515625203,-0.54191,-0.285217,-0.040643,-0.605279,0.732092,1.180334
1515625203,-0.56387,-0.292807,-0.044811,-0.597724,0.732073,1.094984
1515625203,-0.593586,-0.275118,-0.051396,-0.59789,0.786424,1.008062
1515625203,-0.629308,-0.250239,-0.057404,-0.590783,0.863121,0.930039
1515625203,-0.661957,-0.221445,-0.057296,-0.580624,0.927906,0.867929
1515625203,-0.694313,-0.187777,-0.055948,-0.543859,0.951999,0.831277
1515625203,-0.718478,-0.174335,-0.050404,-0.461873,0.902669,0.799618
1515625203,-0.730872,-0.181895,-0.039459,-0.322469,0.7825,0.74002
1515625203,-0.730401,-0.218907,-0.021385,-0.154526,0.615984,0.642825
1515625203,-0.715688,-0.275748,-0.006236,0.004459,0.427544,0.502538
1515625203,-0.689266,-0.338482,0.0014,0.124363,0.253252,0.318172
1515625203,-0.656337,-0.397901,0.008384,0.196571,0.128341,0.081505
1515625203,-0.621465,-0.437782,0.012079,0.231629,0.050671,-0.194552
1515625203,-0.595105,-0.449079,0.014356,0.239875,0.027439,-0.485225
1515625203,-0.579241,-0.431269,0.018808,0.253223,0.041498,-0.770048
1515625203,-0.568961,-0.391437,0.024421,0.278017,0.058545,-1.031203
1515625203,-0.557395,-0.345589,0.031624,0.324901,0.060374,-1.258103
1515625203,-0.542029,-0.298288,0.039606,0.387183,0.047798,-1.430529
1515625203,-0.520089,-0.260156,0.046164,0.45957,0.022954,-1.553853
1515625203,-0.492382,-0.227912,0.053025,0.531718,-0.028868,-1.649739
1515625203,-0.462887,-0.195127,0.057355,0.609204,-0.102106,-1.737274
1515625203,-0.433798,-0.163312,0.063054,0.695571,-0.183613,-1.846161
1515625203,-0.399123,-0.135873,0.070672,0.791065,-0.291321,-1.988365
1515625203,-0.3631,-0.112462,0.073914,0.886905,-0.402974,-2.155177
1515625203,-0.328936,-0.086957,0.078557,0.967878,-0.506068,-2.333809
1515625203,-0.294179,-0.06088,0.086957,1.023757,-0.576518,-2.487782
1515625203,-0.260436,-0.031894,0.093862,1.037995,-0.605201,-2.583009
1515625203,-0.228237,-0.001423,0.096618,0.999933,-0.600717,-2.619718
1515625203,-0.194935,0.032573,0.097054,0.93974,-0.568066,-2.611496
1515625203,-0.159216,0.063014,0.094839,0.878238,-0.545288,-2.582048
1515625203,-0.119653,0.087003,0.093189,0.830742,-0.533048,-2.555766
1515625203,-0.07761,0.104441,0.095054,0.801552,-0.520588,-2.537808
1515625203,-0.039883,0.116652,0.096685,0.781029,-0.525148,-2.522088
1515625203,-0.003573,0.12237,0.095276,0.744208,-0.525751,-2.489424
1515625203,0.025542,0.130663,0.092683,0.697767,-0.540296,-2.452771
1515625203,0.054154,0.141925,0.088186,0.644873,-0.553829,-2.414047
1515625203,0.074947,0.15096,0.082363,0.614313,-0.565227,-2.365421
1515625203,0.092514,0.165406,0.078097,0.598807,-0.60112,-2.313706
1515625203,0.116381,0.178116,0.067668,0.582408,-0.65935,-2.267611
1515625203,0.13753,0.199015,0.053762,0.571346,-0.749655,-2.209026
1515625203,0.150833,0.21782,0.040293,0.553487,-0.839298,-2.122744
1515625203,0.159014,0.23187,0.024999,0.540569,-0.917525,-2.009563
1515625203,0.168119,0.239787,0.009782,0.531837,-0.96365,-1.90022
1515625203,0.172487,0.255308,-0.001666,0.530738,-0.974279,-1.813854
1515625203,0.17667,0.274038,-0.014184,0.505039,-0.915392,-1.752575
1515625203,0.191093,0.285914,-0.022285,0.461059,-0.882373,-1.675807
1515625203,0.206001,0.284281,-0.03944,0.466289,-0.825557,-1.605642
1515625203,0.219661,0.282869,-0.037152,0.474828,-0.71186,-1.562521
1515625203,0.230597,0.302972,-0.031894,0.479908,-0.587698,-1.504362
1515625203,0.239555,0.310043,-0.027921,0.480263,-0.466145,-1.412113
1515625203,0.251816,0.312901,-0.013503,0.457079,-0.356445,-1.316017
1515625203,0.265781,0.324331,0.00111,0.425485,-0.289454,-1.216267
1515625203,0.276691,0.33589,0.01547,0.39728,-0.264105,-1.115907
1515625203,0.284871,0.353184,0.028991,0.37999,-0.284611,-1.015966
1515625203,0.290063,0.370495,0.037688,0.367042,-0.3382,-0.908899
1515625203,0.292758,0.387556,0.044078,0.352949,-0.402542,-0.792366
1515625203,0.290967,0.404906,0.045786,0.333386,-0.465977,-0.66734
1515625204,0.284221,0.419774,0.043038,0.303823,-0.49869,-0.524979
1515625204,0.275482,0.429359,0.040053,0.267635,-0.507021,-0.375992
1515625204,0.274255,0.429983,0.032959,0.221612,-0.496329,-0.218348
1515625204,0.273049,0.423246,0.026772,0.146497,-0.446311,-0.059509
1515625204,0.274237,0.41294,0.021049,0.038221,-0.356818,0.084458
1515625204,0.278992,0.401441,0.015011,-0.084696,-0.243546,0.194364
1515625204,0.272981,0.403117,0.011568,-0.214808,-0.126845,0.28073
1515625204,0.251928,0.422435,0.00767,-0.364323,-0.022147,0.381672
1515625204,0.223547,0.44872,-0.00201,-0.533299,0.06516,0.503531
1515625204,0.197012,0.467978,-0.013786,-0.699391,0.140389,0.654116
1515625204,0.17186,0.482068,-0.025922,-0.851952,0.220694,0.831624
1515625204,0.143745,0.489749,-0.038861,-0.972875,0.324336,1.036487
1515625204,0.126873,0.47895,-0.050442,-1.068133,0.431286,1.241697
1515625204,0.124848,0.445392,-0.063451,-1.109242,0.525188,1.403604
1515625204,0.129906,0.39917,-0.069849,-1.097899,0.583893,1.496293
1515625204,0.130721,0.365072,-0.075354,-1.058813,0.604002,1.527971
1515625204,0.121786,0.346216,-0.078735,-1.016045,0.611701,1.528571
1515625204,0.101457,0.336813,-0.080007,-0.972128,0.605544,1.527951
1515625204,0.081498,0.334141,-0.076876,-0.931642,0.589569,1.547461
1515625204,0.058151,0.33682,-0.073853,-0.892738,0.564531,1.608496
1515625204,0.029407,0.343263,-0.070182,-0.84459,0.528495,1.702616
1515625204,0.002134,0.343412,-0.065005,-0.778303,0.479649,1.805342
1515625204,-0.016891,0.330448,-0.059995,-0.704529,0.419028,1.912289
1515625204,-0.032043,0.311049,-0.059444,-0.64759,0.352175,1.999735
1515625204,-0.046669,0.290056,-0.061435,-0.594306,0.299763,2.034981
1515625204,-0.049727,0.25182,-0.056894,-0.536866,0.266429,1.992543
1515625204,-0.039881,0.200518,-0.050439,-0.481683,0.256434,1.87026
1515625204,-0.024178,0.139243,-0.043514,-0.452795,0.284175,1.70006
1515625204,-0.004613,0.07411,-0.034845,-0.471104,0.362997,1.520302
1515625204,0.018445,0.01196,-0.02617,-0.550819,0.477534,1.358401
1515625204,0.041625,-0.040108,-0.017465,-0.681475,0.633026,1.230562
1515625204,0.059554,-0.078179,-0.010054,-0.840657,0.811291,1.147514
1515625204,0.065829,-0.100105,-0.002944,-1.003743,0.988907,1.116745
1515625204,0.071939,-0.117298,0.001767,-1.129545,1.124814,1.113682
1515625204,0.082894,-0.135476,0.003592,-1.204695,1.200267,1.105153
1515625204,0.09376,-0.148861,0.006283,-1.235363,1.225062,1.068776
1515625204,0.103886,-0.156482,0.008999,-1.241896,1.199065,1.005376
1515625204,0.108884,-0.162861,0.006529,-1.251522,1.151764,0.940614
1515625204,0.10573,-0.162166,0.000779,-1.27962,1.100904,0.898016
1515625204,0.096564,-0.15561,-0.008592,-1.328577,1.065537,0.889533
1515625204,0.084129,-0.146712,-0.018234,-1.380095,1.038362,0.909952
1515625204,0.067249,-0.135319,-0.026425,-1.412965,1.041798,0.966206
1515625204,0.045774,-0.119233,-0.032821,-1.422858,1.059856,1.060287
1515625204,0.023611,-0.108881,-0.04217,-1.404171,1.077784,1.178203
1515625204,-0.000645,-0.102337,-0.048321,-1.354536,1.089353,1.304955
1515625204,-0.027186,-0.100621,-0.054743,-1.289875,1.097847,1.429712
1515625204,-0.054074,-0.107873,-0.059485,-1.202399,1.090701,1.534259
1515625204,-0.079124,-0.118328,-0.059977,-1.090823,1.058464,1.605683
1515625204,-0.105976,-0.132832,-0.057236,-0.96345,0.986354,1.629822
1515625204,-0.139664,-0.146309,-0.050557,-0.810868,0.877389,1.62178
1515625204,-0.168195,-0.16711,-0.041338,-0.651731,0.749308,1.61038
1515625204,-0.198767,-0.183771,-0.035068,-0.507938,0.619745,1.626548
1515625204,-0.241376,-0.187684,-0.029704,-0.380565,0.504725,1.665127
1515625204,-0.28824,-0.181864,-0.019831,-0.265305,0.420442,1.718881
1515625204,-0.336314,-0.17639,-0.011104,-0.166326,0.370171,1.778189
1515625204,-0.38189,-0.177576,-0.002454,-0.08673,0.353941,1.834474
1515625204,-0.425121,-0.183832,0.004851,-0.028441,0.368752,1.872724
1515625204,-0.467792,-0.195523,0.013533,0.013402,0.405485,1.852304
1515625204,-0.501493,-0.207495,0.020694,0.026302,0.426869,1.759802
1515625204,-0.536158,-0.213887,0.026548,0.016529,0.432864,1.607037
1515625204,-0.570834,-0.214887,0.036345,-0.017683,0.432453,1.443225
1515625204,-0.601461,-0.227728,0.047048,-0.069083,0.449033,1.278345
1515625204,-0.625822,-0.242707,0.056844,-0.13137,0.505037,1.113809
1515625204,-0.638685,-0.265047,0.06711,-0.197942,0.573852,0.945106
1515625204,-0.644149,-0.28231,0.071146,-0.257874,0.625733,0.7656
1515625204,-0.669141,-0.260816,0.073035,-0.288841,0.659648,0.587288
1515625204,-0.703721,-0.223762,0.082453,-0.263988,0.639419,0.415392
1515625204,-0.720537,-0.206155,0.095954,-0.173614,0.530817,0.256029
1515625204,-0.730915,-0.193703,0.10668,-0.043345,0.32842,0.106692
1515625204,-0.736007,-0.192654,0.112734,0.100621,0.067011,-0.005815
1515625204,-0.726025,-0.215039,0.115159,0.250812,-0.212729,-0.09711
1515625204,-0.697405,-0.258846,0.118378,0.410745,-0.507331,-0.191671
1515625204,-0.662347,-0.306805,0.118742,0.572447,-0.812031,-0.335459
1515625204,-0.629079,-0.330208,0.115902,0.719835,-1.107638,-0.532707
1515625204,-0.60443,-0.327372,0.108189,0.872963,-1.371797,-0.770093
1515625204,-0.588475,-0.305735,0.103875,0.970237,-1.582893,-1.010706
1515625204,-0.57901,-0.269925,0.087794,1.00173,-1.732682,-1.235342
1515625204,-0.578515,-0.219641,0.072308,0.998243,-1.822228,-1.425494
1515625204,-0.577191,-0.171878,0.058578,0.966363,-1.859928,-1.590796
1515625204,-0.574605,-0.125882,0.044978,0.91978,-1.838437,-1.717113
1515625204,-0.574676,-0.078814,0.035027,0.872651,-1.770279,-1.818312
1515625204,-0.566525,-0.037702,0.02484,0.829636,-1.688346,-1.911819
1515625204,-0.54151,-0.014546,0.017999,0.791994,-1.59676,-2.010483
1515625204,-0.498297,-0.009942,0.012007,0.748166,-1.521031,-2.121162
1515625204,-0.445439,-0.015861,0.003989,0.689672,-1.46117,-2.250361
1515625204,-0.389307,-0.019948,-0.002708,0.621866,-1.423567,-2.395959
1515625204,-0.334567,-0.019582,-0.008582,0.544663,-1.408285,-2.551551
1515625204,-0.284066,-0.010406,-0.017076,0.477144,-1.41327,-2.704067
1515625204,-0.235621,0.005602,-0.024442,0.414712,-1.422763,-2.835215
1515625204,-0.191731,0.028673,-0.034707,0.363599,-1.429365,-2.933088
1515625204,-0.148767,0.054579,-0.045232,0.316222,-1.410714,-2.998574
1515625204,-0.108271,0.082901,-0.055866,0.266111,-1.362617,-3.029561
1515625204,-0.073403,0.112846,-0.066359,0.222797,-1.266894,-3.024652
1515625204,-0.042454,0.143774,-0.07421,0.180037,-1.164128,-2.983339
1515625204,-0.008194,0.168575,-0.084715,0.139131,-1.057304,-2.921665
1515625204,0.024915,0.188482,-0.091003,0.103513,-0.967661,-2.849455
1515625204,0.057717,0.207787,-0.098175,0.071313,-0.906727,-2.782889
1515625204,0.092439,0.22244,-0.103898,0.043635,-0.863775,-2.728234
1515625204,0.12409,0.237588,-0.108444,0.018321,-0.844167,-2.682376
1515625204,0.150012,0.257683,-0.11485,-0.012138,-0.85012,-2.643295
1515625204,0.17027,0.283192,-0.123617,-0.051117,-0.861435,-2.605447
1515625205,0.185549,0.313805,-0.13481,-0.092332,-0.870706,-2.561193
1515625205,0.200328,0.346614,-0.145893,-0.128382,-0.865144,-2.508154
1515625205,0.215744,0.373435,-0.154954,-0.166038,-0.826834,-2.425905
1515625205,0.230814,0.39769,-0.163502,-0.195656,-0.767492,-2.311271
1515625205,0.246677,0.41617,-0.170772,-0.225698,-0.684991,-2.172866
1515625205,0.267028,0.427245,-0.17571,-0.250672,-0.59417,-2.016142
1515625205,0.287468,0.433774,-0.178684,-0.273563,-0.508718,-1.853052
1515625205,0.307366,0.436549,-0.183188,-0.288879,-0.43491,-1.69215
1515625205,0.328096,0.437295,-0.18558,-0.305007,-0.376968,-1.545331
1515625205,0.341464,0.442182,-0.186647,-0.318836,-0.328511,-1.407142
1515625205,0.348942,0.451925,-0.188249,-0.321658,-0.296866,-1.286113
1515625205,0.354948,0.462709,-0.186631,-0.314454,-0.289502,-1.186613
1515625205,0.359368,0.474139,-0.186752,-0.31378,-0.294005,-1.074522
1515625205,0.356038,0.488879,-0.190596,-0.324226,-0.293554,-0.932601
1515625205,0.350766,0.503835,-0.194673,-0.332878,-0.292353,-0.765016
1515625205,0.349695,0.509052,-0.198995,-0.332128,-0.276347,-0.585391
1515625205,0.348404,0.509731,-0.20435,-0.318446,-0.243018,-0.418223
1515625205,0.348723,0.508798,-0.211747,-0.296018,-0.191234,-0.271022
1515625205,0.352391,0.503024,-0.214671,-0.282193,-0.107437,-0.132079
1515625205,0.355613,0.4937,-0.212366,-0.284363,-0.005451,-0.003789
1515625205,0.35722,0.487332,-0.20613,-0.277679,0.106463,0.099096
1515625205,0.347307,0.500554,-0.190066,-0.274064,0.215277,0.192296
1515625205,0.320454,0.530506,-0.168958,-0.303968,0.307541,0.316937
1515625205,0.287286,0.563316,-0.152602,-0.386543,0.377897,0.46632
1515625205,0.265888,0.576881,-0.137911,-0.498043,0.437362,0.621636
1515625205,0.251873,0.570585,-0.125105,-0.636573,0.507125,0.793845
1515625205,0.242172,0.5598,-0.121562,-0.807445,0.582959,0.98176
1515625205,0.238115,0.536228,-0.127249,-0.981451,0.67922,1.157066
1515625205,0.240418,0.501165,-0.133627,-1.120407,0.78385,1.268812
1515625205,0.238503,0.478421,-0.138892,-1.22018,0.907458,1.324651
1515625205,0.224889,0.468485,-0.142378,-1.291965,1.047441,1.362863
1515625205,0.210258,0.461385,-0.144339,-1.357623,1.192566,1.4215
1515625205,0.195001,0.455694,-0.143339,-1.414194,1.326536,1.524967
1515625205,0.173014,0.454764,-0.137207,-1.44005,1.431434,1.662627
1515625205,0.148528,0.451602,-0.122654,-1.410551,1.487132,1.839865
1515625205,0.122326,0.4446,-0.10844,-1.329446,1.456586,2.029491
1515625205,0.093068,0.437234,-0.100076,-1.196204,1.343421,2.189909
1515625205,0.06511,0.428062,-0.088451,-1.013958,1.181969,2.303338
1515625205,0.036213,0.413552,-0.082119,-0.788226,0.993523,2.375306
1515625205,0.009773,0.386573,-0.077082,-0.550246,0.806671,2.411125
1515625205,-0.006355,0.347375,-0.071517,-0.331234,0.638148,2.418106
1515625205,-0.014277,0.300047,-0.065177,-0.172238,0.506715,2.418413
1515625205,-0.016524,0.251898,-0.063918,-0.074355,0.435912,2.405908
1515625205,-0.010978,0.200452,-0.057688,-0.023908,0.436297,2.394765
1515625205,-0.008137,0.146563,-0.049591,-0.023047,0.501453,2.388084
1515625205,-0.011335,0.104217,-0.041086,-0.070663,0.619627,2.386805
1515625205,-0.014178,0.067885,-0.035498,-0.146253,0.757868,2.389707
1515625205,-0.019102,0.032975,-0.029248,-0.230258,0.898338,2.380789
1515625205,-0.028177,0.006618,-0.018372,-0.293461,1.020051,2.343056
1515625205,-0.040207,-0.015388,-0.001012,-0.325084,1.088828,2.282636
1515625205,-0.048034,-0.039777,0.014021,-0.335055,1.102272,2.222872
1515625205,-0.059969,-0.061291,0.030165,-0.331045,1.074079,2.172385
1515625205,-0.074457,-0.077033,0.04264,-0.324007,1.01575,2.146135
1515625205,-0.093681,-0.089539,0.052414,-0.323842,0.963436,2.151913
1515625205,-0.118284,-0.098138,0.06196,-0.321931,0.916117,2.185541
1515625205,-0.14427,-0.111323,0.07081,-0.317109,0.866418,2.24267
1515625205,-0.17867,-0.119183,0.075593,-0.315648,0.812273,2.312522
1515625205,-0.216161,-0.120751,0.078564,-0.30128,0.762559,2.376172
1515625205,-0.248316,-0.125391,0.082756,-0.273693,0.689662,2.419409
1515625205,-0.279808,-0.133663,0.078785,-0.225483,0.620298,2.439442
1515625205,-0.308596,-0.151719,0.07822,-0.166219,0.545994,2.434979
1515625205,-0.341002,-0.174298,0.078705,-0.104612,0.477265,2.413522
1515625205,-0.377451,-0.192442,0.076002,-0.0686,0.43737,2.375022
1515625205,-0.408442,-0.210676,0.073877,-0.061449,0.441235,2.318553
1515625205,-0.440828,-0.232052,0.07567,-0.049969,0.48911,2.243439
1515625205,-0.467412,-0.253882,0.085014,-0.052258,0.555266,2.151293
1515625205,-0.493059,-0.26904,0.087776,-0.072752,0.614869,2.062057
1515625205,-0.525694,-0.274184,0.092816,-0.096355,0.649898,1.973557
1515625205,-0.555055,-0.279251,0.099246,-0.11653,0.642305,1.883515
1515625205,-0.586098,-0.285816,0.10316,-0.118299,0.598577,1.790054
1515625205,-0.615178,-0.296393,0.108671,-0.102624,0.513457,1.686689
1515625205,-0.642662,-0.302083,0.10749,-0.079272,0.407113,1.576752
1515625205,-0.670942,-0.306236,0.104225,-0.049078,0.292614,1.437963
1515625205,-0.699138,-0.310261,0.100228,-0.020608,0.177437,1.268171
1515625205,-0.725784,-0.307644,0.09009,-0.016287,0.068933,1.060796
1515625205,-0.767139,-0.272047,0.075968,-0.041698,-0.010596,0.825648
1515625205,-0.819106,-0.214414,0.063915,-0.067568,-0.053053,0.612302
1515625205,-0.854503,-0.180717,0.051524,-0.07372,-0.07344,0.437901
1515625205,-0.868971,-0.172432,0.043284,-0.07268,-0.10585,0.290142
1515625205,-0.879424,-0.162398,0.030827,-0.071372,-0.162696,0.130347
1515625205,-0.874028,-0.165354,0.015519,-0.064116,-0.237153,-0.06804
1515625205,-0.842367,-0.194765,0.003606,-0.03705,-0.304575,-0.309895
1515625205,-0.791794,-0.235403,-0.001458,0.016151,-0.351131,-0.592838
1515625205,-0.731489,-0.274777,-0.000249,0.1019,-0.392827,-0.91058
1515625205,-0.670281,-0.294304,0.005652,0.210394,-0.453454,-1.242162
1515625205,-0.621647,-0.283578,0.009582,0.327537,-0.556819,-1.565611
1515625205,-0.586053,-0.248724,0.012173,0.430357,-0.692737,-1.846905
1515625205,-0.556022,-0.203307,0.014115,0.48935,-0.830855,-2.050783
1515625205,-0.533469,-0.151108,0.011948,0.517263,-0.960485,-2.173762
1515625205,-0.513612,-0.098462,0.008292,0.532613,-1.081229,-2.240181
1515625205,-0.489985,-0.06059,0.000949,0.558243,-1.188376,-2.279614
1515625205,-0.459548,-0.030223,-0.007186,0.598854,-1.295451,-2.318868
1515625205,-0.422859,-0.010081,-0.016877,0.65574,-1.39581,-2.377071
1515625205,-0.387246,0.007061,-0.026539,0.721208,-1.468291,-2.446582
1515625205,-0.349101,0.019664,-0.034885,0.76861,-1.52787,-2.530039
1515625205,-0.30983,0.03177,-0.040884,0.803036,-1.555456,-2.614336
1515625205,-0.274185,0.044051,-0.045617,0.818865,-1.557839,-2.677187
1515625205,-0.23616,0.052258,-0.052419,0.814188,-1.54442,-2.732616
1515625205,-0.195489,0.061929,-0.054796,0.790099,-1.517308,-2.781703
1515625205,-0.156938,0.071405,-0.05801,0.750976,-1.484979,-2.828768
1515625205,-0.119804,0.083257,-0.063293,0.685095,-1.448498,-2.877171
1515625206,-0.085459,0.102869,-0.068512,0.610467,-1.402594,-2.914884
1515625206,-0.055978,0.125752,-0.073551,0.529159,-1.337669,-2.939632
1515625206,-0.026519,0.145269,-0.081705,0.436792,-1.25173,-2.945032
1515625206,0.003841,0.167068,-0.090244,0.346357,-1.154148,-2.938524
1515625206,0.030441,0.193611,-0.097805,0.269658,-1.055577,-2.919025
1515625206,0.053788,0.218938,-0.103758,0.208959,-0.973034,-2.889917
1515625206,0.078414,0.240088,-0.107232,0.164302,-0.915023,-2.851304
1515625206,0.102985,0.259676,-0.111476,0.131393,-0.87949,-2.803208
1515625206,0.124684,0.281195,-0.116309,0.108115,-0.858907,-2.749837
1515625206,0.147939,0.300459,-0.122935,0.092288,-0.847954,-2.690086
1515625206,0.174355,0.31271,-0.127312,0.080604,-0.840275,-2.618581
1515625206,0.199622,0.321512,-0.131841,0.069838,-0.822053,-2.539459
1515625206,0.220733,0.336347,-0.13729,0.043772,-0.776393,-2.446301
1515625206,0.240127,0.351522,-0.143334,0.009785,-0.698972,-2.331499
1515625206,0.260956,0.361436,-0.148305,-0.02878,-0.600414,-2.201545
1515625206,0.280191,0.365894,-0.151397,-0.061036,-0.493355,-2.066074
1515625206,0.301955,0.366042,-0.152674,-0.099715,-0.373452,-1.934798
1515625206,0.322351,0.363989,-0.150814,-0.132966,-0.252408,-1.80985
1515625206,0.339162,0.36436,-0.148824,-0.160696,-0.149399,-1.691461
1515625206,0.351559,0.366006,-0.143842,-0.16673,-0.069574,-1.586977
1515625206,0.358126,0.371862,-0.134494,-0.155286,-0.025739,-1.496605
1515625206,0.359003,0.384595,-0.12881,-0.152362,-0.008711,-1.400247
1515625206,0.354393,0.403778,-0.129367,-0.160269,-0.000438,-1.291306
1515625206,0.348188,0.429928,-0.12895,-0.159749,0.003492,-1.170571
1515625206,0.342839,0.451945,-0.127214,-0.146639,-0.017368,-1.022217
1515625206,0.338777,0.464974,-0.128946,-0.125278,-0.041672,-0.849243
1515625206,0.331225,0.478999,-0.130884,-0.098733,-0.069272,-0.662366
1515625206,0.325444,0.485105,-0.130353,-0.067796,-0.096787,-0.483977
1515625206,0.318459,0.48556,-0.133259,-0.038684,-0.111229,-0.334284
1515625206,0.309382,0.485466,-0.132451,-0.000776,-0.099663,-0.210877
1515625206,0.305828,0.477184,-0.12808,0.037539,-0.071634,-0.12358
1515625206,0.309156,0.460301,-0.122747,0.096794,-0.040853,-0.08299
1515625206,0.312569,0.442118,-0.10997,0.161652,-0.009815,-0.061554
1515625206,0.30825,0.434794,-0.095694,0.176903,0.033473,-0.015997
1515625206,0.285209,0.455174,-0.085733,0.120355,0.123535,0.100827
1515625206,0.255179,0.476023,-0.076385,-0.004658,0.238033,0.287616
1515625206,0.234409,0.486071,-0.070198,-0.19464,0.354704,0.530265
1515625206,0.216897,0.48667,-0.0681,-0.428639,0.445336,0.792366
1515625206,0.200046,0.48326,-0.068246,-0.674371,0.515574,1.058356
1515625206,0.195421,0.454402,-0.071013,-0.894868,0.55652,1.287981
1515625206,0.203771,0.404869,-0.082539,-1.02815,0.569368,1.407232
1515625206,0.211092,0.364051,-0.091151,-1.065909,0.574255,1.428202
1515625206,0.201406,0.346311,-0.10094,-1.063425,0.594954,1.395371
1515625206,0.181629,0.34542,-0.114094,-1.05799,0.636829,1.37458
1515625206,0.159672,0.343953,-0.123203,-1.079821,0.685615,1.389859
1515625206,0.133434,0.350373,-0.129192,-1.096846,0.741435,1.443728
1515625206,0.105116,0.349848,-0.130152,-1.075981,0.780797,1.55125
1515625206,0.076947,0.34561,-0.131269,-1.029692,0.782609,1.691727
1515625206,0.045385,0.349501,-0.134087,-0.944782,0.742952,1.839639
1515625206,0.015786,0.349394,-0.133748,-0.808886,0.652747,1.953374
1515625206,-0.011887,0.344108,-0.134246,-0.622919,0.523887,2.017045
1515625206,-0.030557,0.324954,-0.133207,-0.414823,0.379752,2.031666
1515625206,-0.041254,0.29744,-0.132679,-0.222431,0.249802,2.015297
1515625206,-0.045501,0.264736,-0.130707,-0.048042,0.150949,1.97346
1515625206,-0.04165,0.228354,-0.125838,0.087779,0.103248,1.91683
1515625206,-0.031966,0.187869,-0.118165,0.173087,0.114015,1.85603
1515625206,-0.016387,0.143155,-0.110338,0.20459,0.173528,1.800517
1515625206,-0.004413,0.106188,-0.101266,0.194235,0.268033,1.741725
1515625206,0.007965,0.073305,-0.087054,0.161299,0.373016,1.687064
1515625206,0.019567,0.044815,-0.073177,0.125061,0.480061,1.638795
1515625206,0.023892,0.027603,-0.058036,0.0886,0.574053,1.611727
1515625206,0.030002,0.016295,-0.041641,0.058536,0.628431,1.600276
1515625206,0.034324,0.005285,-0.0293,0.045718,0.642357,1.59388
1515625206,0.036068,-0.004379,-0.017629,0.041675,0.622195,1.58291
1515625206,0.039709,-0.019279,-0.011303,0.032211,0.589027,1.581334
1515625206,0.036841,-0.025707,-0.008873,0.005351,0.575938,1.593673
1515625206,0.028886,-0.026608,-0.00726,-0.029187,0.585192,1.612594
1515625206,0.01994,-0.033861,-0.004035,-0.050244,0.630499,1.651337
1515625206,0.003573,-0.039832,0.003248,-0.052633,0.698918,1.726893
1515625206,-0.019692,-0.040702,0.012872,-0.052261,0.766981,1.83665
1515625206,-0.043416,-0.047123,0.023075,-0.037999,0.812612,1.955915
1515625206,-0.071084,-0.051935,0.037543,-0.009594,0.824241,2.069598
1515625206,-0.102247,-0.057358,0.052009,0.028858,0.802033,2.163769
1515625206,-0.134159,-0.068595,0.064065,0.07097,0.741664,2.237233
1515625206,-0.167404,-0.087505,0.078281,0.13187,0.659386,2.27328
1515625206,-0.197296,-0.117164,0.095485,0.196397,0.564682,2.282518
1515625206,-0.225416,-0.147829,0.109111,0.248314,0.4755,2.272447
1515625206,-0.25849,-0.174484,0.12008,0.278798,0.419352,2.25291
1515625206,-0.292624,-0.19572,0.132835,0.284691,0.39736,2.219608
1515625206,-0.324373,-0.213085,0.142704,0.260543,0.404069,2.182023
1515625206,-0.364396,-0.216183,0.148673,0.211703,0.41917,2.147447
1515625206,-0.40694,-0.213642,0.151581,0.157589,0.441784,2.104357
1515625206,-0.443761,-0.212886,0.154362,0.096206,0.444187,2.051327
1515625206,-0.476796,-0.210783,0.150714,0.052187,0.425492,1.987568
1515625206,-0.507573,-0.210748,0.151259,0.034885,0.387635,1.933507
1515625206,-0.534493,-0.213577,0.151032,0.036674,0.331511,1.898677
1515625206,-0.554887,-0.220941,0.147208,0.06942,0.261556,1.874729
1515625206,-0.567128,-0.234872,0.147502,0.141743,0.183228,1.855421
1515625206,-0.577414,-0.247813,0.149627,0.254586,0.108209,1.846246
1515625206,-0.584103,-0.257054,0.154333,0.394101,0.028966,1.844814
1515625206,-0.59427,-0.255747,0.160892,0.535819,-0.049186,1.838085
1515625206,-0.613827,-0.227921,0.164154,0.66829,-0.141995,1.80757
1515625206,-0.64947,-0.178919,0.170738,0.798409,-0.247977,1.717061
1515625206,-0.687601,-0.127581,0.183885,0.916238,-0.386749,1.596109
1515625206,-0.716401,-0.09766,0.187507,0.964282,-0.515348,1.488331
1515625206,-0.751088,-0.08288,0.185516,0.928565,-0.597549,1.385458
1515625206,-0.777439,-0.083067,0.189376,0.841429,-0.656528,1.277984
1515625206,-0.780529,-0.119231,0.196186,0.727927,-0.748487,1.152711
1515625206,-0.763285,-0.176147,0.193736,0.615516,-0.89086,0.962762
1515625206,-0.73183,-0.225569,0.190806,0.520477,-1.064139,0.684007
1515625206,-0.699654,-0.259183,0.189056,0.443033,-1.282021,0.304534
1515625206,-0.669782,-0.267589,0.178188,0.366625,-1.500056,-0.15289
1515625207,-0.647437,-0.24788,0.166185,0.274396,-1.668742,-0.645149
1515625207,-0.634223,-0.20512,0.147396,0.144007,-1.780372,-1.10407
1515625207,-0.623217,-0.153462,0.120862,-0.00914,-1.823656,-1.484479
1515625207,-0.613368,-0.098721,0.093521,-0.179995,-1.798915,-1.763886
1515625207,-0.597624,-0.043262,0.06345,-0.343686,-1.713252,-1.959172
1515625207,-0.57391,-0.000179,0.034982,-0.473034,-1.611118,-2.086569
1515625207,-0.538882,0.026768,0.008873,-0.551147,-1.535609,-2.194453
1515625207,-0.488321,0.040328,-0.016798,-0.581053,-1.48336,-2.297774
1515625207,-0.44034,0.047009,-0.037449,-0.580851,-1.450138,-2.405235
1515625207,-0.392599,0.056344,-0.057845,-0.552552,-1.432559,-2.527504
1515625207,-0.341082,0.064303,-0.07466,-0.488839,-1.414653,-2.656829
1515625207,-0.29,0.065729,-0.082414,-0.407006,-1.406407,-2.777507
1515625207,-0.238323,0.064975,-0.090029,-0.335155,-1.393182,-2.873679
1515625207,-0.189088,0.06163,-0.098177,-0.289836,-1.34977,-2.916405
1515625207,-0.145192,0.062009,-0.107131,-0.280418,-1.293153,-2.919882
1515625207,-0.100255,0.067759,-0.117044,-0.281163,-1.216696,-2.890135
1515625207,-0.05456,0.068491,-0.121297,-0.275544,-1.158475,-2.849851
1515625207,-0.016341,0.07734,-0.128278,-0.25287,-1.113064,-2.799908
1515625207,0.019154,0.090756,-0.135871,-0.202231,-1.100585,-2.748961
1515625207,0.057287,0.096026,-0.13689,-0.117089,-1.110187,-2.709617
1515625207,0.090686,0.100566,-0.139305,-0.033843,-1.140983,-2.681233
1515625207,0.12144,0.112758,-0.143493,0.038846,-1.169589,-2.664694
1515625207,0.144896,0.124775,-0.14269,0.094398,-1.183313,-2.652451
1515625207,0.165697,0.135381,-0.140808,0.100477,-1.173943,-2.629838
1515625207,0.182885,0.15493,-0.1449,0.04925,-1.12362,-2.57751
1515625207,0.194846,0.177242,-0.149364,-0.038966,-1.04725,-2.488996
1515625207,0.203756,0.197853,-0.156026,-0.145794,-0.951008,-2.3759
1515625207,0.215866,0.217601,-0.161456,-0.245432,-0.84213,-2.244412
1515625207,0.225733,0.237804,-0.167755,-0.324932,-0.736497,-2.096706
1515625207,0.235624,0.256002,-0.173564,-0.372171,-0.653081,-1.953153
1515625207,0.245856,0.270255,-0.176698,-0.405108,-0.581087,-1.835196
1515625207,0.252198,0.290346,-0.180736,-0.437488,-0.533175,-1.750634
1515625207,0.257433,0.301478,-0.187572,-0.465179,-0.496666,-1.692852
1515625207,0.262985,0.30449,-0.19261,-0.503481,-0.472981,-1.637487
1515625207,0.266776,0.311478,-0.200216,-0.551602,-0.445202,-1.569375
1515625207,0.266097,0.321485,-0.20883,-0.604207,-0.416582,-1.486353
1515625207,0.264767,0.33516,-0.217358,-0.646299,-0.390205,-1.388282
1515625207,0.260025,0.351012,-0.22444,-0.668117,-0.363782,-1.285697
1515625207,0.252198,0.373736,-0.231261,-0.687768,-0.345898,-1.182121
1515625207,0.241311,0.400358,-0.240461,-0.682906,-0.316185,-1.074908
1515625207,0.230707,0.424901,-0.245998,-0.656986,-0.255582,-0.952122
1515625207,0.224404,0.438474,-0.249725,-0.604365,-0.187408,-0.827858
1515625207,0.229269,0.438765,-0.252669,-0.535419,-0.123194,-0.722671
1515625207,0.24095,0.432022,-0.253,-0.467356,-0.056674,-0.632419
1515625207,0.25448,0.41748,-0.252308,-0.411899,0.01104,-0.560457
1515625207,0.271919,0.405593,-0.248625,-0.363698,0.083225,-0.507752
1515625207,0.285147,0.399466,-0.2393,-0.331428,0.166161,-0.467923
1515625207,0.288211,0.405601,-0.226853,-0.310748,0.225614,-0.433854
1515625207,0.282885,0.430549,-0.213055,-0.322373,0.273999,-0.381078
1515625207,0.262536,0.466386,-0.203853,-0.35805,0.328244,-0.292207
1515625207,0.239463,0.490483,-0.189935,-0.402744,0.386332,-0.170289
1515625207,0.222794,0.505971,-0.178642,-0.474686,0.46204,-0.017511
1515625207,0.203804,0.521249,-0.17192,-0.572684,0.551214,0.158614
1515625207,0.202199,0.518483,-0.169885,-0.687054,0.653935,0.353932
1515625207,0.221367,0.479066,-0.169561,-0.795978,0.751407,0.543912
1515625207,0.246242,0.427995,-0.165537,-0.870262,0.839778,0.707494
1515625207,0.258942,0.39089,-0.160725,-0.904519,0.920155,0.841554
1515625207,0.256853,0.368672,-0.152874,-0.89126,0.990468,0.94722
1515625207,0.254204,0.342876,-0.142481,-0.852964,1.054868,1.023209
1515625207,0.245266,0.323261,-0.131106,-0.804675,1.102496,1.077755
1515625207,0.230712,0.31077,-0.115897,-0.751897,1.118205,1.127698
1515625207,0.214658,0.296922,-0.10181,-0.699239,1.111309,1.194456
1515625207,0.190743,0.292613,-0.087252,-0.64459,1.081785,1.280189
1515625207,0.164523,0.291095,-0.074478,-0.585539,1.01813,1.368766
1515625207,0.136222,0.294602,-0.06502,-0.524169,0.932191,1.451761
1515625207,0.107844,0.300594,-0.058287,-0.455006,0.832597,1.51653
1515625207,0.086055,0.298799,-0.055269,-0.375987,0.736467,1.563303
1515625207,0.073826,0.288544,-0.05707,-0.29458,0.656634,1.585736
1515625207,0.068694,0.26791,-0.056183,-0.213064,0.595062,1.593443
1515625207,0.071061,0.233253,-0.054742,-0.14764,0.554835,1.59694
1515625207,0.079036,0.199634,-0.053075,-0.100589,0.537928,1.605838
1515625207,0.085555,0.16335,-0.049923,-0.068896,0.549516,1.633054
1515625207,0.087343,0.133468,-0.045194,-0.052342,0.585525,1.663587
1515625207,0.085134,0.115219,-0.037729,-0.040055,0.609736,1.697132
1515625207,0.082132,0.091922,-0.028075,-0.042586,0.611526,1.725958
1515625207,0.073993,0.074506,-0.019074,-0.069386,0.573855,1.742274
1515625207,0.060843,0.059632,-0.011829,-0.089833,0.535064,1.763993
1515625207,0.049149,0.034541,-0.001542,-0.076106,0.478206,1.797647
1515625207,0.041881,0.009862,-0.003828,-0.069268,0.414363,1.788414
1515625207,0.028795,0.02854,-0.008095,-0.094252,0.403193,1.820022
1515625207,0.012779,0.004883,-0.009227,-0.108606,0.442334,1.839548
1515625207,0.004214,-0.021563,-0.005262,-0.089355,0.51633,1.815037
1515625207,0.000595,-0.042638,0.004569,-0.041215,0.621574,1.780562
1515625207,-0.018737,-0.052555,0.022622,0.012898,0.745697,1.773088
1515625207,-0.044231,-0.057654,0.04138,0.061374,0.852395,1.793105
1515625207,-0.066997,-0.061284,0.060366,0.091361,0.923393,1.847715
1515625207,-0.092883,-0.065001,0.085333,0.118152,0.949396,1.916698
1515625207,-0.122515,-0.069632,0.111024,0.152441,0.926181,2.002264
1515625207,-0.148482,-0.086243,0.133059,0.194345,0.855999,2.09483
1515625207,-0.177458,-0.10706,0.153605,0.255728,0.751825,2.182947
1515625207,-0.208333,-0.127241,0.171852,0.306773,0.609317,2.256599
1515625207,-0.2395,-0.144588,0.184297,0.350876,0.453372,2.293693
1515625207,-0.274186,-0.157576,0.196501,0.386986,0.303254,2.285906
1515625207,-0.310179,-0.173367,0.20698,0.409547,0.169438,2.245048
1515625207,-0.342376,-0.188438,0.212223,0.39701,0.068871,2.176402
1515625207,-0.380087,-0.194312,0.211236,0.346998,0.010891,2.093943
1515625207,-0.410549,-0.199917,0.207513,0.255121,-0.001368,2.005129
1515625207,-0.437457,-0.211533,0.20019,0.135311,0.009692,1.916264
1515625207,-0.4656,-0.22611,0.195762,0.008985,0.025986,1.832725
1515625207,-0.490113,-0.238108,0.191257,-0.107731,0.0466,1.749352
1515625207,-0.519446,-0.244313,0.183867,-0.2028,0.06325,1.649101
1515625208,-0.539431,-0.246196,0.181666,-0.295235,0.053582,1.520797
1515625208,-0.548452,-0.253257,0.174702,-0.385296,0.03019,1.379541
1515625208,-0.56135,-0.257962,0.167554,-0.458391,0.039971,1.238885
1515625208,-0.576356,-0.268272,0.170751,-0.514208,0.085321,1.074299
1515625208,-0.573615,-0.292052,0.171721,-0.558876,0.152553,0.868458
1515625208,-0.556024,-0.319541,0.162421,-0.616296,0.246602,0.646766
1515625208,-0.544046,-0.341249,0.146067,-0.67144,0.335398,0.416496
1515625208,-0.54372,-0.333205,0.130404,-0.70392,0.425562,0.17156
1515625208,-0.559273,-0.286908,0.116325,-0.722417,0.48265,-0.0672
1515625208,-0.591058,-0.208801,0.102256,-0.708102,0.498884,-0.26441
1515625208,-0.626841,-0.126743,0.095226,-0.643958,0.454997,-0.405149
1515625208,-0.658218,-0.051369,0.093667,-0.486803,0.397708,-0.453098
1515625208,-0.682687,-0.004214,0.105846,-0.276589,0.367228,-0.395432
1515625208,-0.689037,-0.010077,0.125182,-0.067405,0.251116,-0.311043
1515625208,-0.640603,-0.06647,0.111759,0.101372,0.034183,-0.292426
1515625208,-0.567166,-0.14858,0.099956,0.229818,-0.221361,-0.366599
1515625208,-0.516181,-0.213926,0.092302,0.326407,-0.452344,-0.548721
1515625208,-0.48336,-0.242232,0.086673,0.400519,-0.636469,-0.827731
1515625208,-0.455096,-0.24195,0.079839,0.457013,-0.782672,-1.163098
1515625208,-0.444254,-0.211154,0.073474,0.485126,-0.864154,-1.478801
1515625208,-0.446564,-0.159513,0.070515,0.481789,-0.880732,-1.705452
1515625208,-0.447944,-0.106921,0.065706,0.430948,-0.86141,-1.832911
1515625208,-0.444785,-0.050105,0.053864,0.356623,-0.807733,-1.896159
1515625208,-0.435072,-0.00427,0.043939,0.292608,-0.748983,-1.931457
1515625208,-0.412275,0.01997,0.03401,0.256753,-0.704792,-1.986885
1515625208,-0.372867,0.025473,0.025109,0.247194,-0.688858,-2.078652
1515625208,-0.335897,0.030368,0.014422,0.249675,-0.672606,-2.190565
1515625208,-0.298502,0.037555,0.007905,0.247942,-0.667017,-2.303725
1515625208,-0.261666,0.045367,-0.001633,0.237564,-0.667985,-2.408522
1515625208,-0.229426,0.058983,-0.006809,0.231097,-0.659613,-2.488597
1515625208,-0.197666,0.074578,-0.007148,0.224429,-0.653568,-2.552682
1515625208,-0.167984,0.094183,-0.00962,0.216627,-0.655073,-2.609396
1515625208,-0.132214,0.10991,-0.014403,0.210757,-0.654619,-2.651112
1515625208,-0.097342,0.122971,-0.018155,0.206885,-0.651072,-2.683154
1515625208,-0.062917,0.138187,-0.02064,0.202814,-0.629487,-2.706438
1515625208,-0.030344,0.156319,-0.02074,0.196138,-0.581542,-2.703804
1515625208,-0.003049,0.175145,-0.022994,0.18698,-0.524279,-2.67866
1515625208,0.029816,0.188128,-0.027676,0.171338,-0.47459,-2.646209
1515625208,0.064559,0.199941,-0.02975,0.151399,-0.430307,-2.61067
1515625208,0.094914,0.208501,-0.031295,0.134734,-0.399894,-2.575257
1515625208,0.121775,0.219922,-0.031562,0.125712,-0.383212,-2.546328
1515625208,0.147176,0.236646,-0.033131,0.113607,-0.369648,-2.526016
1515625208,0.173654,0.253412,-0.032718,0.087551,-0.362617,-2.50061
1515625208,0.196914,0.273458,-0.037782,0.042181,-0.377149,-2.463945
1515625208,0.216835,0.294384,-0.042875,0.001935,-0.39186,-2.410133
1515625208,0.234254,0.308475,-0.045528,-0.041892,-0.397283,-2.331689
1515625208,0.251854,0.324299,-0.050165,-0.09134,-0.381545,-2.240241
1515625208,0.269854,0.339317,-0.053656,-0.134541,-0.353085,-2.14002
1515625208,0.28731,0.350553,-0.054493,-0.170496,-0.311939,-2.025678
1515625208,0.302626,0.362487,-0.056304,-0.207822,-0.251776,-1.895105
1515625208,0.31792,0.37269,-0.058919,-0.244374,-0.183312,-1.745198
1515625208,0.336519,0.374694,-0.062066,-0.27885,-0.115953,-1.58994
1515625208,0.353166,0.377636,-0.063384,-0.314408,-0.04648,-1.434669
1515625208,0.36861,0.378597,-0.064044,-0.345465,0.012507,-1.292287
1515625208,0.380086,0.380524,-0.066447,-0.370925,0.052454,-1.161815
1515625208,0.39097,0.383898,-0.065001,-0.387478,0.070282,-1.04966
1515625208,0.401126,0.388972,-0.064456,-0.408121,0.065742,-0.94423
1515625208,0.407158,0.394463,-0.062726,-0.438514,0.062097,-0.83036
1515625208,0.405317,0.406338,-0.062404,-0.486334,0.075249,-0.699409
1515625208,0.398642,0.422927,-0.063279,-0.507504,0.086311,-0.559622
1515625208,0.39738,0.42757,-0.060446,-0.504291,0.10051,-0.403488
1515625208,0.394017,0.423191,-0.058285,-0.499257,0.113357,-0.222784
1515625208,0.384889,0.423411,-0.059333,-0.494356,0.145375,-0.038648
1515625208,0.380906,0.416367,-0.057426,-0.488151,0.190438,0.123235
1515625208,0.381075,0.403594,-0.057361,-0.48348,0.22748,0.242282
1515625208,0.381217,0.394669,-0.054514,-0.488035,0.277661,0.326136
1515625208,0.375031,0.39133,-0.046476,-0.510614,0.322562,0.399031
1515625208,0.368655,0.388187,-0.041154,-0.525475,0.359175,0.458032
1515625208,0.353271,0.400444,-0.02902,-0.520877,0.356394,0.515724
1515625208,0.315079,0.432912,-0.017989,-0.512426,0.339344,0.610668
1515625208,0.258762,0.476743,-0.007187,-0.517658,0.335391,0.764347
1515625208,0.208985,0.505039,-0.002135,-0.571691,0.327412,0.967593
1515625208,0.162683,0.524654,-0.010841,-0.684676,0.304029,1.182768
1515625208,0.106782,0.548826,-0.024843,-0.834864,0.275284,1.380352
1515625208,0.04951,0.565223,-0.044848,-0.998402,0.248068,1.535074
1515625208,0.01331,0.544419,-0.071962,-1.15526,0.280037,1.650004
1515625208,-0.000093,0.48388,-0.101082,-1.279678,0.384223,1.714927
1515625208,0.000466,0.408294,-0.126212,-1.355446,0.559788,1.718277
1515625208,0.001194,0.342831,-0.146278,-1.398734,0.790488,1.674617
1515625208,-0.00357,0.299564,-0.158512,-1.425665,1.039726,1.601474
1515625208,-0.006312,0.263294,-0.1646,-1.441732,1.288118,1.516699
1515625208,-0.011066,0.242609,-0.161982,-1.441742,1.493778,1.446551
1515625208,-0.016581,0.233831,-0.150547,-1.394778,1.62352,1.411293
1515625208,-0.023556,0.228039,-0.131153,-1.287799,1.642292,1.408516
1515625208,-0.025384,0.22266,-0.108799,-1.137725,1.547986,1.423047
1515625208,-0.032114,0.220657,-0.090233,-0.971254,1.369467,1.441031
1515625208,-0.04156,0.222774,-0.069818,-0.799152,1.146226,1.453203
1515625208,-0.04743,0.217311,-0.056999,-0.648095,0.910313,1.442548
1515625208,-0.045341,0.203334,-0.049506,-0.534401,0.709652,1.412647
1515625208,-0.040493,0.176361,-0.045174,-0.476695,0.59622,1.377792
1515625208,-0.031173,0.147365,-0.045695,-0.492043,0.561414,1.336607
1515625208,-0.014955,0.113392,-0.047944,-0.551627,0.629951,1.286529
1515625208,0.006169,0.073052,-0.042587,-0.642753,0.776062,1.24769
1515625208,0.019405,0.038794,-0.035336,-0.765657,0.971682,1.247518
1515625208,0.026194,0.013599,-0.031748,-0.890082,1.166904,1.281498
1515625208,0.036371,-0.011546,-0.0249,-0.982341,1.306638,1.330144
1515625208,0.050033,-0.036486,-0.014544,-1.046409,1.368673,1.378189
1515625208,0.058935,-0.05565,-0.010888,-1.091953,1.396836,1.413229
1515625208,0.064371,-0.075476,-0.006374,-1.130887,1.390914,1.445803
1515625208,0.066382,-0.096974,-0.007337,-1.154568,1.34569,1.471676
1515625208,0.064253,-0.112407,-0.011175,-1.156588,1.28152,1.484763
1515625209,0.058012,-0.120468,-0.015777,-1.133867,1.196172,1.495753
1515625209,0.043145,-0.125396,-0.023462,-1.084452,1.099132,1.515463
1515625209,0.022045,-0.121616,-0.032279,-1.010612,1.008478,1.547289
1515625209,-0.001793,-0.116333,-0.040204,-0.912564,0.931522,1.605198
1515625209,-0.023691,-0.11472,-0.047416,-0.803997,0.856586,1.676074
1515625209,-0.050713,-0.107244,-0.058126,-0.694855,0.802656,1.777111
1515625209,-0.087944,-0.103436,-0.061812,-0.592354,0.768875,1.887922
1515625209,-0.127557,-0.098545,-0.069044,-0.482414,0.769335,1.990692
1515625209,-0.16692,-0.102681,-0.065606,-0.359363,0.763665,2.075389
1515625209,-0.206294,-0.11528,-0.058138,-0.22092,0.752021,2.131361
1515625209,-0.246345,-0.131455,-0.043184,-0.051899,0.712158,2.151046
1515625209,-0.282229,-0.15341,-0.019288,0.141464,0.644211,2.120486
1515625209,-0.313929,-0.175723,0.011737,0.320376,0.54563,2.060548
1515625209,-0.345252,-0.195789,0.037155,0.455644,0.434134,1.987122
1515625209,-0.376781,-0.211077,0.060814,0.536453,0.336334,1.899333
1515625209,-0.406688,-0.221096,0.085288,0.56586,0.268265,1.803813
1515625209,-0.435533,-0.231091,0.10358,0.551335,0.224554,1.703791
1515625209,-0.465216,-0.239115,0.115721,0.49283,0.232996,1.593196
1515625209,-0.491211,-0.245742,0.127098,0.407436,0.291544,1.475407
1515625209,-0.510863,-0.254723,0.134583,0.316663,0.391784,1.345241
1515625209,-0.527267,-0.266073,0.143262,0.220706,0.530662,1.188783
1515625209,-0.543682,-0.269148,0.150719,0.113051,0.691005,1.019626
1515625209,-0.555914,-0.273843,0.157358,-0.014919,0.85984,0.846056
1515625209,-0.568233,-0.274539,0.161131,-0.132082,1.018099,0.668217
1515625209,-0.577009,-0.28003,0.170637,-0.222715,1.178449,0.506738
1515625209,-0.57991,-0.297129,0.184147,-0.284427,1.320763,0.349657
1515625209,-0.578977,-0.312396,0.197225,-0.309668,1.440824,0.193812
1515625209,-0.573268,-0.328795,0.213668,-0.302315,1.517604,0.016471
1515625209,-0.569193,-0.32879,0.231699,-0.283348,1.53101,-0.20742
1515625209,-0.57574,-0.291526,0.255567,-0.265957,1.481686,-0.452374
1515625209,-0.599876,-0.226034,0.276494,-0.26502,1.374106,-0.646964
1515625209,-0.646093,-0.138425,0.28897,-0.245558,1.22739,-0.772386
1515625209,-0.699236,-0.044882,0.301779,-0.184057,1.061981,-0.833451
1515625209,-0.738204,0.007308,0.309594,-0.105348,0.912966,-0.825766
1515625209,-0.738207,-0.021285,0.311215,-0.037396,0.763836,-0.813938
1515625209,-0.697039,-0.099721,0.305074,-0.002138,0.605196,-0.915819
1515625209,-0.648009,-0.16649,0.298736,0.024497,0.486923,-1.188195
1515625209,-0.590395,-0.221242,0.307226,0.024755,0.419035,-1.587366
1515625209,-0.544303,-0.243097,0.313671,-0.052202,0.379384,-2.065077
1515625209,-0.513829,-0.210523,0.315151,-0.196742,0.369221,-2.5411
1515625209,-0.49233,-0.15386,0.316365,-0.410156,0.373462,-2.913105
1515625209,-0.482445,-0.076948,0.30574,-0.647485,0.377391,-3.176465
1515625209,-0.478468,0.024779,0.291677,-0.849849,0.411321,-3.342931
1515625209,-0.467773,0.117845,0.277742,-1.01092,0.425922,-3.388456
1515625209,-0.445721,0.183944,0.244587,-1.136315,0.419768,-3.372935
1515625209,-0.40945,0.233274,0.211067,-1.207322,0.395496,-3.336691
1515625209,-0.367213,0.264854,0.178346,-1.207366,0.341888,-3.314909
1515625209,-0.321151,0.280916,0.15105,-1.154791,0.282307,-3.304322
1515625209,-0.278607,0.296579,0.126491,-1.068918,0.202688,-3.295718
1515625209,-0.24039,0.314287,0.100104,-0.931608,0.134087,-3.29598
1515625209,-0.202021,0.32933,0.087531,-0.758873,0.059301,-3.302301
1515625209,-0.159764,0.341949,0.076293,-0.572476,-0.025229,-3.286152
1515625209,-0.125241,0.360353,0.061997,-0.374708,-0.120745,-3.235826
1515625209,-0.085537,0.374104,0.057735,-0.188046,-0.217766,-3.154678
1515625209,-0.040725,0.381284,0.049077,-0.03592,-0.303423,-3.055649
1515625209,0.002633,0.386756,0.040196,0.079387,-0.366116,-2.932216
1515625209,0.045765,0.386642,0.030192,0.169893,-0.416269,-2.799314
1515625209,0.083852,0.387907,0.019655,0.257056,-0.459042,-2.658888
1515625209,0.113743,0.388136,0.016695,0.352968,-0.499449,-2.533282
1515625209,0.138248,0.394168,0.018729,0.464076,-0.552452,-2.419394
1515625209,0.157846,0.402053,0.026118,0.555052,-0.6215,-2.315546
1515625209,0.175275,0.40958,0.034188,0.614197,-0.71399,-2.224111
1515625209,0.192497,0.415395,0.039963,0.640323,-0.811853,-2.142746
1515625209,0.213098,0.413413,0.044181,0.620486,-0.905648,-2.067217
1515625209,0.230665,0.412987,0.043138,0.551249,-0.97415,-1.987698
1515625209,0.246843,0.410216,0.038956,0.451796,-1.001264,-1.903768
1515625209,0.262462,0.407548,0.030906,0.330824,-0.979293,-1.828049
1515625209,0.275788,0.407319,0.022323,0.215048,-0.910334,-1.75704
1515625209,0.292967,0.405549,0.015738,0.112035,-0.812433,-1.689804
1515625209,0.309002,0.402198,0.010212,0.017453,-0.68785,-1.622145
1515625209,0.321188,0.405318,0.005978,-0.079449,-0.541004,-1.548901
1515625209,0.333201,0.408231,0.00549,-0.182951,-0.382509,-1.465989
1515625209,0.349506,0.404824,0.00787,-0.285515,-0.238072,-1.36828
1515625209,0.365738,0.39899,0.010005,-0.38266,-0.113876,-1.268617
1515625209,0.381344,0.392056,0.014586,-0.464677,-0.010839,-1.172237
1515625209,0.395508,0.386724,0.018399,-0.543264,0.072005,-1.085667
1515625209,0.407084,0.380856,0.020238,-0.623742,0.134686,-1.011108
1515625209,0.416066,0.372101,0.021326,-0.698808,0.187833,-0.93767
1515625209,0.422828,0.365837,0.021852,-0.756899,0.238789,-0.852307
1515625209,0.423658,0.362699,0.021276,-0.797995,0.289731,-0.757132
1515625209,0.419095,0.364961,0.021354,-0.807936,0.335581,-0.669123
1515625209,0.415646,0.362175,0.021648,-0.79635,0.358099,-0.582208
1515625209,0.411609,0.356244,0.022129,-0.77497,0.373336,-0.504877
1515625209,0.401436,0.359251,0.023121,-0.724563,0.389894,-0.437864
1515625209,0.389418,0.359464,0.027561,-0.67409,0.380819,-0.366888
1515625209,0.37604,0.359586,0.026597,-0.616994,0.367659,-0.309765
1515625209,0.350319,0.363728,0.029055,-0.540087,0.321869,-0.282702
1515625209,0.324396,0.362073,0.028733,-0.469555,0.272887,-0.25789
1515625209,0.314114,0.349923,0.031286,-0.458192,0.224373,-0.210279
1515625209,0.303465,0.34852,0.026192,-0.530018,0.229365,-0.12243
1515625209,0.294351,0.350565,0.026744,-0.663484,0.26881,0.001412
1515625209,0.28664,0.35734,0.025731,-0.829357,0.306745,0.148347
1515625209,0.268696,0.377085,0.021951,-0.994258,0.326394,0.308957
1515625209,0.244916,0.403294,0.019118,-1.15371,0.307595,0.475577
1515625209,0.207167,0.439375,0.007221,-1.305754,0.282348,0.65075
1515625209,0.167441,0.46967,-0.008501,-1.450122,0.247654,0.815221
1515625209,0.126739,0.50093,-0.030212,-1.596556,0.218372,0.972257
1515625209,0.078818,0.537566,-0.055387,-1.745165,0.205112,1.126257
1515625209,0.028692,0.568948,-0.082888,-1.894003,0.219494,1.288062
1515625209,0.003162,0.558426,-0.1077,-2.0102,0.271069,1.477403
1515625209,-0.005011,0.506556,-0.126874,-2.049186,0.336056,1.650734
1515625210,-0.000572,0.442546,-0.133658,-1.993349,0.399968,1.776053
1515625210,-0.000877,0.391454,-0.136453,-1.870354,0.474581,1.837152
1515625210,-0.010297,0.354853,-0.132969,-1.704714,0.554514,1.828335
1515625210,-0.021972,0.330893,-0.126781,-1.531824,0.599858,1.768994
1515625210,-0.029195,0.316619,-0.123916,-1.396149,0.598102,1.707574
1515625210,-0.034569,0.30986,-0.116387,-1.320719,0.584005,1.674123
1515625210,-0.052283,0.310466,-0.106337,-1.313003,0.527477,1.676738
1515625210,-0.066015,0.315109,-0.108953,-1.382308,0.453415,1.682499
1515625210,-0.079136,0.318717,-0.106813,-1.450931,0.434725,1.698546
1515625210,-0.090522,0.307127,-0.095043,-1.510922,0.436482,1.702127
1515625210,-0.092237,0.291868,-0.095551,-1.563365,0.480114,1.687078
1515625210,-0.094981,0.272952,-0.093072,-1.630883,0.576031,1.660733
1515625210,-0.09173,0.24776,-0.092399,-1.74227,0.707104,1.621473
1515625210,-0.082835,0.219701,-0.095172,-1.89535,0.890518,1.560984
1515625210,-0.06776,0.181441,-0.093131,-2.08693,1.106912,1.486555
1515625210,-0.045335,0.139215,-0.090403,-2.304093,1.338249,1.399186
1515625210,-0.023495,0.099032,-0.084552,-2.535065,1.563181,1.306235
1515625210,-0.004166,0.062436,-0.081029,-2.758359,1.77547,1.203612
1515625210,0.013358,0.031456,-0.074729,-2.94822,1.953885,1.093502
1515625210,0.029769,0.005892,-0.070467,-3.104685,2.087668,0.982185
1515625210,0.039581,-0.009314,-0.070686,-3.219306,2.174659,0.879345
1515625210,0.050809,-0.020923,-0.069996,-3.299579,2.215891,0.784903
1515625210,0.0606,-0.028334,-0.072602,-3.361801,2.235649,0.708575
1515625210,0.064992,-0.026996,-0.078143,-3.412426,2.234962,0.652431
1515625210,0.066307,-0.026497,-0.087955,-3.462119,2.215951,0.613164
1515625210,0.072271,-0.031082,-0.1017,-3.516286,2.180659,0.593941
1515625210,0.076472,-0.031887,-0.115607,-3.574979,2.149432,0.5918
1515625210,0.074672,-0.029033,-0.133163,-3.611499,2.112712,0.614419
1515625210,0.068164,-0.030468,-0.153529,-3.61295,2.070596,0.657681
1515625210,0.058975,-0.030813,-0.168925,-3.565259,2.024355,0.708956
1515625210,0.045704,-0.033311,-0.182848,-3.473841,1.96753,0.775573
1515625210,0.032604,-0.037519,-0.197267,-3.354729,1.905418,0.854201
1515625210,0.019788,-0.040993,-0.212128,-3.211162,1.840047,0.945898
1515625210,0.004551,-0.045163,-0.222539,-3.035437,1.748134,1.042996
1515625210,-0.010213,-0.046306,-0.235627,-2.837217,1.639205,1.14443
1515625210,-0.026147,-0.049275,-0.246047,-2.587871,1.529228,1.264617
1515625210,-0.039866,-0.068086,-0.250638,-2.292596,1.40767,1.395888
1515625210,-0.056437,-0.084598,-0.256313,-1.966266,1.278828,1.528506
1515625210,-0.075689,-0.103346,-0.258593,-1.637547,1.144832,1.644004
1515625210,-0.096541,-0.125404,-0.257344,-1.334076,1.008926,1.727142
1515625210,-0.125185,-0.140887,-0.255283,-1.060201,0.891415,1.775972
1515625210,-0.162572,-0.149326,-0.244494,-0.819536,0.790834,1.821408
1515625210,-0.203361,-0.162388,-0.227415,-0.60578,0.711394,1.871051
1515625210,-0.241619,-0.172243,-0.207977,-0.434953,0.643398,1.925661
1515625210,-0.285545,-0.180128,-0.190817,-0.29926,0.594657,1.959794
1515625210,-0.325513,-0.195505,-0.169007,-0.190047,0.548159,1.97228
1515625210,-0.365111,-0.20956,-0.146715,-0.111733,0.500546,1.974773
1515625210,-0.405102,-0.223423,-0.127279,-0.059843,0.434904,1.958578
1515625210,-0.433401,-0.241922,-0.109793,-0.018063,0.372913,1.896385
1515625210,-0.460871,-0.263197,-0.087513,-0.003534,0.342325,1.779781
1515625210,-0.485451,-0.286511,-0.070812,-0.021783,0.351563,1.619478
1515625210,-0.504198,-0.309004,-0.061966,-0.081851,0.423699,1.443416
1515625210,-0.526199,-0.326759,-0.053891,-0.186087,0.575676,1.261383
1515625210,-0.546292,-0.33274,-0.049055,-0.321497,0.790569,1.067989
1515625210,-0.559704,-0.329065,-0.044798,-0.464491,1.04603,0.867517
1515625210,-0.582037,-0.310538,-0.037961,-0.594814,1.301414,0.680011
1515625210,-0.608433,-0.278756,-0.032708,-0.691075,1.517181,0.5202
1515625210,-0.631693,-0.240846,-0.025947,-0.728519,1.653939,0.39111
1515625210,-0.651952,-0.203761,-0.014321,-0.702731,1.680818,0.293486
1515625210,-0.670414,-0.16835,-0.001544,-0.61668,1.598012,0.20914
1515625210,-0.68098,-0.152067,0.013898,-0.467977,1.423916,0.112692
1515625210,-0.673183,-0.170598,0.032086,-0.294282,1.198822,0.005252
1515625210,-0.653721,-0.205224,0.041077,-0.138607,0.980263,-0.11728
1515625210,-0.634033,-0.239615,0.048374,-0.017174,0.812985,-0.25776
1515625210,-0.614088,-0.274632,0.056907,0.095865,0.717524,-0.435919
1515625210,-0.586897,-0.303768,0.072409,0.203705,0.688562,-0.648581
1515625210,-0.558925,-0.316418,0.092458,0.291416,0.688608,-0.886765
1515625210,-0.538609,-0.306768,0.111875,0.362109,0.68757,-1.13264
1515625210,-0.518204,-0.278849,0.132298,0.414726,0.641568,-1.371796
1515625210,-0.497558,-0.241022,0.154462,0.454301,0.554633,-1.581698
1515625210,-0.476933,-0.200359,0.174969,0.482934,0.425641,-1.759127
1515625210,-0.457625,-0.157452,0.188838,0.501638,0.275995,-1.907021
1515625210,-0.436304,-0.118066,0.201175,0.514668,0.119597,-2.028363
1515625210,-0.413687,-0.086434,0.20667,0.530698,-0.034867,-2.134692
1515625210,-0.389866,-0.056551,0.208221,0.547607,-0.17232,-2.232265
1515625210,-0.369067,-0.022527,0.207841,0.565415,-0.273487,-2.32939
1515625210,-0.347095,0.011927,0.204325,0.576575,-0.344914,-2.419828
1515625210,-0.321794,0.041253,0.198833,0.572554,-0.391956,-2.503745
1515625210,-0.295568,0.075032,0.193492,0.555466,-0.412495,-2.580022
1515625210,-0.268038,0.109913,0.186942,0.534969,-0.408574,-2.649638
1515625210,-0.23451,0.137917,0.186866,0.515242,-0.386723,-2.703008
1515625210,-0.199372,0.162923,0.188044,0.489931,-0.372631,-2.736245
1515625210,-0.165048,0.18719,0.187572,0.46552,-0.367227,-2.753558
1515625210,-0.130636,0.207374,0.188352,0.439856,-0.361984,-2.757004
1515625210,-0.09545,0.225641,0.190091,0.413922,-0.353773,-2.741194
1515625210,-0.059658,0.242955,0.19149,0.385697,-0.340347,-2.715736
1515625210,-0.02787,0.259395,0.195871,0.348796,-0.308865,-2.688028
1515625210,0.002312,0.277924,0.20028,0.288242,-0.269048,-2.65516
1515625210,0.037096,0.287678,0.199881,0.194377,-0.232729,-2.610983
1515625210,0.066479,0.296668,0.194347,0.080139,-0.193327,-2.564876
1515625210,0.096811,0.308249,0.191704,-0.036243,-0.147526,-2.520853
1515625210,0.128482,0.311425,0.190118,-0.15271,-0.095345,-2.472483
1515625210,0.160983,0.312262,0.185317,-0.270176,-0.061345,-2.423275
1515625210,0.195856,0.311126,0.17831,-0.377984,-0.042271,-2.370927
1515625210,0.222478,0.311342,0.172495,-0.478301,-0.026364,-2.31746
1515625210,0.241739,0.320615,0.165008,-0.568218,-0.006376,-2.242462
1515625210,0.25917,0.33307,0.152418,-0.632602,0.002896,-2.152337
1515625210,0.274806,0.348739,0.1422,-0.679909,0.012198,-2.058804
1515625210,0.284908,0.368916,0.132052,-0.700704,0.027874,-1.94886
1515625210,0.294437,0.38233,0.125471,-0.707806,0.041277,-1.821693
1515625210,0.308606,0.390224,0.118267,-0.704548,0.064084,-1.671862
1515625210,0.319565,0.394619,0.113371,-0.700327,0.076068,-1.510401
1515625211,0.333298,0.394127,0.108128,-0.699281,0.075237,-1.346998
1515625211,0.348405,0.392512,0.106753,-0.708752,0.050974,-1.189344
1515625211,0.356574,0.397134,0.103214,-0.722444,0.025645,-1.036022
1515625211,0.363749,0.39949,0.100204,-0.748865,0.00678,-0.893454
1515625211,0.369698,0.399047,0.09373,-0.767686,-0.005527,-0.761397
1515625211,0.375453,0.395902,0.091057,-0.773456,-0.02292,-0.64313
1515625211,0.378097,0.394736,0.085757,-0.774806,-0.040183,-0.535488
1515625211,0.378851,0.397614,0.079717,-0.760972,-0.067939,-0.439537
1515625211,0.383209,0.394924,0.073034,-0.744185,-0.091582,-0.325348
1515625211,0.383179,0.39597,0.065615,-0.740615,-0.110256,-0.184559
1515625211,0.378933,0.402153,0.058904,-0.750164,-0.133542,-0.021552
1515625211,0.375384,0.403828,0.051369,-0.764042,-0.152616,0.143591
1515625211,0.370456,0.403078,0.043378,-0.7702,-0.18108,0.294828
1515625211,0.367226,0.398917,0.032723,-0.773826,-0.226315,0.422398
1515625211,0.363784,0.394918,0.021596,-0.785776,-0.261753,0.528627
1515625211,0.358299,0.39194,0.007692,-0.817988,-0.287571,0.626185
1515625211,0.351494,0.387253,-0.006399,-0.874928,-0.307221,0.729934
1515625211,0.336912,0.395597,-0.022453,-0.954381,-0.321689,0.834547
1515625211,0.310218,0.425885,-0.040189,-1.056265,-0.323366,0.93157
1515625211,0.275167,0.459513,-0.060523,-1.170131,-0.307067,1.038278
1515625211,0.24145,0.486665,-0.082736,-1.313297,-0.270947,1.168373
1515625211,0.200548,0.516876,-0.11107,-1.46855,-0.222337,1.317701
1515625211,0.156961,0.54591,-0.137019,-1.632767,-0.130194,1.482395
1515625211,0.118803,0.564201,-0.16091,-1.801774,0.004351,1.671037
1515625211,0.091379,0.551686,-0.187823,-1.93796,0.164431,1.877466
1515625211,0.08514,0.501257,-0.208386,-2.011644,0.327317,2.0505
1515625211,0.084584,0.444725,-0.221736,-2.010533,0.482921,2.154913
1515625211,0.079395,0.397715,-0.229974,-1.967959,0.631989,2.202067
1515625211,0.066823,0.364415,-0.237776,-1.901122,0.753933,2.204329
1515625211,0.04876,0.345565,-0.2424,-1.80267,0.872246,2.164207
1515625211,0.028526,0.330021,-0.236315,-1.674959,0.964285,2.105958
1515625211,0.005637,0.314719,-0.230122,-1.531398,1.020873,2.075238
1515625211,-0.020031,0.303342,-0.221754,-1.393778,1.04693,2.099615
1515625211,-0.051052,0.30027,-0.212236,-1.246932,1.036294,2.167445
1515625211,-0.076741,0.294253,-0.201404,-1.075418,0.989388,2.243677
1515625211,-0.093939,0.269722,-0.18769,-0.892104,0.921137,2.325133
1515625211,-0.104737,0.23522,-0.176386,-0.717946,0.830775,2.378445
1515625211,-0.108244,0.195289,-0.168441,-0.551532,0.760436,2.363551
1515625211,-0.10424,0.143559,-0.15344,-0.404642,0.701351,2.283419
1515625211,-0.09209,0.083036,-0.142943,-0.300949,0.66826,2.142217
1515625211,-0.078038,0.020846,-0.133699,-0.247089,0.658961,1.957985
1515625211,-0.067203,-0.028982,-0.122647,-0.249727,0.688139,1.743639
1515625211,-0.052448,-0.072774,-0.109685,-0.310469,0.742413,1.543859
1515625211,-0.045427,-0.104902,-0.101501,-0.417973,0.813981,1.393927
1515625211,-0.047583,-0.11859,-0.095013,-0.552995,0.912586,1.292051
1515625211,-0.046926,-0.122509,-0.087859,-0.667949,1.001445,1.213791
1515625211,-0.045914,-0.122341,-0.083561,-0.738006,1.063702,1.148562
1515625211,-0.043773,-0.120691,-0.079684,-0.773886,1.110008,1.094226
1515625211,-0.04078,-0.116871,-0.078098,-0.801256,1.140253,1.04941
1515625211,-0.040401,-0.111738,-0.081575,-0.838376,1.159625,1.017163
1515625211,-0.040629,-0.1068,-0.082922,-0.899263,1.193675,0.996558
1515625211,-0.046618,-0.101342,-0.082333,-0.958131,1.235124,0.982474
1515625211,-0.054679,-0.102695,-0.075031,-0.985852,1.273627,0.961249
1515625211,-0.059105,-0.111631,-0.060285,-0.979832,1.319371,0.975754
1515625211,-0.076348,-0.118793,-0.040423,-0.958377,1.360359,1.038446
1515625211,-0.09653,-0.120502,-0.02593,-0.925653,1.384913,1.144859
1515625211,-0.114723,-0.12939,-0.009179,-0.88019,1.359088,1.27645
1515625211,-0.140899,-0.135173,0.010829,-0.838811,1.273408,1.413681
1515625211,-0.168852,-0.137968,0.025485,-0.803397,1.128143,1.537306
1515625211,-0.202781,-0.144907,0.04035,-0.740479,0.92052,1.62633
1515625211,-0.245382,-0.1564,0.051857,-0.643779,0.694305,1.676018
1515625211,-0.286519,-0.169857,0.057649,-0.514662,0.479223,1.69846
1515625211,-0.328852,-0.181246,0.060973,-0.368387,0.313557,1.701407
1515625211,-0.368463,-0.194754,0.063534,-0.226627,0.221589,1.696643
1515625211,-0.411683,-0.208002,0.06533,-0.121947,0.228399,1.709717
1515625211,-0.453173,-0.220836,0.06469,-0.071147,0.317039,1.72207
1515625211,-0.488934,-0.232771,0.061231,-0.070638,0.447219,1.719371
1515625211,-0.518245,-0.24785,0.056898,-0.081396,0.590638,1.673979
1515625211,-0.539745,-0.270531,0.064261,-0.08283,0.719782,1.576195
1515625211,-0.557583,-0.294412,0.075069,-0.071765,0.820716,1.433365
1515625211,-0.575622,-0.313023,0.086009,-0.052688,0.883591,1.26454
1515625211,-0.592449,-0.328855,0.099684,-0.041616,0.907311,1.067379
1515625211,-0.603602,-0.341192,0.113478,-0.042015,0.903361,0.856935
1515625211,-0.610786,-0.349903,0.129364,-0.061605,0.887605,0.645051
1515625211,-0.61688,-0.34827,0.140743,-0.098682,0.883202,0.456593
1515625211,-0.626677,-0.340552,0.148159,-0.149968,0.890211,0.286261
1515625211,-0.638083,-0.317615,0.152374,-0.194856,0.884414,0.122257
1515625211,-0.656904,-0.27594,0.157329,-0.229068,0.85401,-0.031236
1515625211,-0.673419,-0.233716,0.161087,-0.234527,0.772228,-0.156171
1515625211,-0.691024,-0.196549,0.163448,-0.202766,0.647615,-0.248074
1515625211,-0.708485,-0.159979,0.163876,-0.153887,0.481294,-0.325323
1515625211,-0.719654,-0.136295,0.159265,-0.096366,0.294734,-0.401644
1515625211,-0.720311,-0.134866,0.151572,-0.050283,0.127693,-0.509906
1515625211,-0.707611,-0.150728,0.140569,-0.02105,-0.003862,-0.651047
1515625211,-0.680439,-0.183568,0.126573,-0.024833,-0.096882,-0.817749
1515625211,-0.649961,-0.209601,0.107319,-0.048219,-0.163638,-1.048448
1515625211,-0.623356,-0.212191,0.090595,-0.056082,-0.210575,-1.326781
1515625211,-0.596294,-0.199653,0.079682,-0.054029,-0.270073,-1.622235
1515625211,-0.573263,-0.167887,0.066375,-0.027576,-0.3414,-1.89725
1515625211,-0.552159,-0.124751,0.05443,0.016352,-0.419677,-2.11554
1515625211,-0.528695,-0.078235,0.041455,0.067843,-0.506308,-2.255876
1515625211,-0.498707,-0.035363,0.025388,0.133542,-0.588203,-2.339383
1515625211,-0.463682,-0.001402,0.013012,0.226772,-0.689477,-2.393962
1515625211,-0.421268,0.024895,0.002398,0.347782,-0.805644,-2.439846
1515625211,-0.380066,0.047606,-0.005027,0.480438,-0.92828,-2.473921
1515625211,-0.336899,0.064173,-0.013953,0.612,-1.048787,-2.506917
1515625211,-0.292622,0.079575,-0.021086,0.731505,-1.144988,-2.526947
1515625211,-0.250249,0.091338,-0.02608,0.827342,-1.229649,-2.541779
1515625211,-0.202778,0.097853,-0.030419,0.90158,-1.296384,-2.548108
1515625211,-0.154495,0.099193,-0.031661,0.949773,-1.352887,-2.531126
1515625211,-0.112417,0.098159,-0.035549,0.972963,-1.386279,-2.492806
1515625212,-0.069384,0.097139,-0.038164,0.980001,-1.413421,-2.449261
1515625212,-0.029897,0.097486,-0.041128,0.984827,-1.434209,-2.402463
1515625212,0.003582,0.103305,-0.04452,0.982037,-1.443344,-2.350277
1515625212,0.033574,0.111914,-0.051083,0.977019,-1.446163,-2.293768
1515625212,0.062898,0.120772,-0.057496,0.966689,-1.447887,-2.240514
1515625212,0.091555,0.12917,-0.065319,0.947842,-1.459274,-2.187476
1515625212,0.114978,0.141293,-0.074872,0.921669,-1.484506,-2.142165
1515625212,0.139218,0.151795,-0.081921,0.897764,-1.524582,-2.101281
1515625212,0.159544,0.162948,-0.090662,0.868568,-1.559289,-2.066802
1515625212,0.174674,0.179826,-0.10332,0.832948,-1.581169,-2.036517
1515625212,0.187066,0.198295,-0.113719,0.785649,-1.583751,-2.020022
1515625212,0.200866,0.214154,-0.124633,0.715614,-1.551338,-1.995901
1515625212,0.207294,0.236022,-0.137145,0.617223,-1.465969,-1.95012
1515625212,0.212626,0.262371,-0.14672,0.499151,-1.33718,-1.88803
1515625212,0.217915,0.283967,-0.155922,0.375424,-1.18298,-1.811817
1515625212,0.223444,0.304242,-0.164196,0.253811,-1.023439,-1.735514
1515625212,0.23079,0.32174,-0.169111,0.137559,-0.851006,-1.664333
1515625212,0.236494,0.337606,-0.169462,0.030786,-0.664734,-1.586464
1515625212,0.243729,0.347084,-0.167471,-0.068407,-0.487973,-1.511825
1515625212,0.256929,0.352993,-0.164723,-0.173838,-0.341085,-1.440822
1515625212,0.272285,0.359761,-0.159874,-0.27045,-0.236784,-1.374498
1515625212,0.282547,0.367724,-0.156356,-0.346494,-0.179276,-1.309563
1515625212,0.288415,0.38273,-0.152933,-0.388161,-0.158961,-1.241462
1515625212,0.285307,0.407743,-0.147838,-0.405236,-0.164238,-1.162698
1515625212,0.281666,0.433363,-0.143892,-0.411803,-0.182479,-1.064742
1515625212,0.275087,0.459358,-0.143008,-0.413411,-0.187119,-0.941999
1515625212,0.265607,0.482441,-0.144807,-0.417495,-0.178169,-0.798829
1515625212,0.260556,0.499201,-0.151005,-0.421774,-0.145802,-0.648973
1515625212,0.257661,0.506807,-0.156618,-0.40982,-0.115315,-0.511764
1515625212,0.259633,0.505466,-0.161326,-0.381503,-0.079129,-0.399922
1515625212,0.266253,0.497443,-0.16442,-0.343256,-0.049033,-0.308328
1515625212,0.28,0.485903,-0.164838,-0.300673,-0.022098,-0.219923
1515625212,0.296993,0.47056,-0.16362,-0.250538,-0.007921,-0.131583
1515625212,0.30917,0.462268,-0.163074,-0.204869,0.012493,-0.031472
1515625212,0.32003,0.464566,-0.157652,-0.161603,0.028373,0.089916
1515625212,0.319981,0.477702,-0.152641,-0.12729,0.037439,0.243154
1515625212,0.304203,0.502141,-0.147168,-0.099762,0.045052,0.424063
1515625212,0.286536,0.521472,-0.138702,-0.077835,0.052439,0.624125
1515625212,0.268688,0.528924,-0.133935,-0.073073,0.062912,0.826155
1515625212,0.250848,0.527877,-0.129549,-0.09699,0.085204,1.007696
1515625212,0.238429,0.514045,-0.129933,-0.153529,0.11426,1.145142
1515625212,0.240075,0.48217,-0.136644,-0.243972,0.17019,1.247267
1515625212,0.247405,0.438828,-0.145802,-0.335376,0.2573,1.33053
1515625212,0.251141,0.3963,-0.155201,-0.407356,0.357481,1.397096
1515625212,0.244347,0.371152,-0.1604,-0.440719,0.461117,1.455621
1515625212,0.225727,0.361166,-0.162335,-0.439824,0.556421,1.516586
1515625212,0.203068,0.359042,-0.162691,-0.410063,0.647538,1.58105
1515625212,0.176587,0.35769,-0.155975,-0.366368,0.7195,1.650787
1515625212,0.150193,0.354966,-0.142446,-0.308692,0.76273,1.725679
1515625212,0.125407,0.346019,-0.125536,-0.249862,0.781354,1.802429
1515625212,0.10145,0.332297,-0.109161,-0.198223,0.772335,1.865947
1515625212,0.078709,0.318831,-0.095414,-0.158933,0.746568,1.898143
1515625212,0.058984,0.300281,-0.081109,-0.129904,0.699701,1.904332
1515625212,0.047307,0.270736,-0.070983,-0.122,0.657264,1.887895
1515625212,0.04475,0.233446,-0.064663,-0.130238,0.64361,1.868407
1515625212,0.044775,0.192832,-0.059768,-0.150289,0.661961,1.840622
1515625212,0.048211,0.148809,-0.052848,-0.182138,0.713441,1.803484
1515625212,0.05735,0.100193,-0.049603,-0.230106,0.778689,1.76632
1515625212,0.063161,0.057833,-0.046909,-0.283642,0.874754,1.734803
1515625212,0.064782,0.025743,-0.041236,-0.334086,0.975039,1.710847
1515625212,0.065517,-0.003719,-0.037745,-0.3727,1.060472,1.68792
1515625212,0.066905,-0.030471,-0.029122,-0.395095,1.112906,1.663721
1515625212,0.066488,-0.05266,-0.020665,-0.400307,1.142952,1.642665
1515625212,0.06359,-0.068829,-0.011734,-0.399066,1.151678,1.626765
1515625212,0.058627,-0.084245,-0.004678,-0.396711,1.151921,1.610773
1515625212,0.046506,-0.09098,0.002857,-0.40194,1.156284,1.600083
1515625212,0.030782,-0.08971,0.012608,-0.425462,1.163659,1.595622
