time,accel x,accel y,accel z,gyro x,gyro y,gyro z
1515639553,-0.066243,0.009249,0.010109,-0.041745,0.497848,-0.059302
1515639553,-0.054879,0.009648,-0.031088,-0.137441,0.449454,-0.063805
1515639553,-0.061992,0.01078,-0.037336,-0.156818,0.355707,-0.04287
1515639553,-0.068685,0.011142,-0.030684,-0.100251,0.254907,-0.000605
1515639553,-0.059712,0.011889,-0.022101,-0.001177,0.178809,0.047114
1515639553,-0.043345,0.013225,-0.00882,0.097585,0.134587,0.101353
1515639553,-0.034863,0.010876,0.002119,0.182329,0.103054,0.151372
1515639553,-0.033267,0.012093,0.020203,0.263545,0.104477,0.198323
1515639553,-0.03485,0.023545,0.042385,0.322874,0.157913,0.230546
1515639553,-0.032053,0.042058,0.046895,0.343739,0.210118,0.241426
1515639553,-0.031684,0.048547,0.039237,0.316517,0.262076,0.238422
1515639553,-0.03731,0.04265,0.032427,0.244531,0.302094,0.23002
1515639553,-0.046794,0.037303,0.02626,0.153611,0.311183,0.214023
1515639553,-0.057388,0.03483,0.023959,0.048959,0.304226,0.203285
1515639553,-0.064305,0.033503,0.025246,-0.057852,0.298347,0.176555
1515639553,-0.064169,0.041223,0.032796,-0.136846,0.288424,0.131703
1515639553,-0.058921,0.047715,0.043051,-0.178539,0.288289,0.085842
1515639553,-0.050755,0.049361,0.045024,-0.18192,0.305328,0.066719
1515639553,-0.048705,0.041793,0.045909,-0.144857,0.339588,0.061546
1515639553,-0.048038,0.033069,0.043497,-0.089921,0.402698,0.039437
1515639553,-0.045316,0.033347,0.033118,-0.0352,0.487126,-0.001772
1515639553,-0.048019,0.038747,0.027142,-0.000315,0.523577,-0.043186
1515639553,-0.056598,0.041428,0.01707,0.017986,0.507792,-0.07416
1515639553,-0.058127,0.036281,0.011396,0.024941,0.451499,-0.088241
1515639553,-0.056619,0.026662,0.004796,0.035264,0.379246,-0.088525
1515639553,-0.053679,0.020557,0.006015,0.051153,0.284661,-0.076104
1515639553,-0.056392,0.013432,0.006313,0.067659,0.236831,-0.048572
1515639553,-0.062858,0.002843,0.00527,0.077977,0.275143,-0.034555
1515639553,-0.064195,-0.005319,0.008603,0.115657,0.356176,-0.02888
1515639553,-0.077046,-0.006495,0.022195,0.209117,0.416189,0.00552
1515639553,-0.092558,-0.005652,0.049734,0.358095,0.482815,0.079418
1515639553,-0.107928,-0.013322,0.090445,0.542324,0.552725,0.200253
1515639553,-0.136683,-0.021589,0.112843,0.73539,0.703462,0.342737
1515639553,-0.179144,-0.031107,0.127696,0.907773,0.893419,0.488567
1515639553,-0.220121,-0.043681,0.12065,1.013777,1.096822,0.635486
1515639553,-0.222532,-0.047114,0.103731,1.013312,1.259281,0.745943
1515639553,-0.173921,-0.006132,0.099634,0.937333,1.492655,0.810805
1515639553,-0.147987,0.066765,0.143425,0.862851,1.899466,0.842252
1515639553,-0.16946,0.12703,0.186604,0.82562,2.32139,0.87058
1515639553,-0.183682,0.144491,0.157142,0.839045,2.809466,0.930112
1515639553,-0.217072,0.114966,0.118369,0.897027,3.331751,1.020717
1515639553,-0.254446,0.059437,0.070574,0.972937,3.876568,1.071978
1515639553,-0.289214,0.019183,-0.111361,0.763878,3.191157,1.251429
1515639553,-0.381717,-0.07394,-0.412715,0.346351,1.975726,1.554449
1515639553,-0.364887,-0.131954,-0.372835,-0.189594,1.394619,1.80452
1515639553,-0.231267,-0.163248,-0.183728,-0.701205,1.59671,1.904232
1515639553,-0.08,-0.163387,-0.035415,-1.087545,1.874362,1.832674
1515639553,0.024611,-0.163924,-0.006244,-1.327276,1.796757,1.681933
1515639553,0.00712,-0.135515,-0.187196,-1.278035,1.451753,1.528121
1515639553,-0.019384,-0.114196,-0.093283,-1.057795,0.993941,1.375007
1515639553,0.012524,-0.037806,-0.014693,-0.636168,0.152488,1.142627
1515639553,0.106063,-0.001131,0.116665,-0.197438,-0.253836,0.877885
1515639553,0.143773,0.059072,0.168424,0.050356,-0.470033,0.707634
1515639553,0.025107,0.150121,0.119811,0.093346,-0.501419,0.587062
1515639553,-0.075039,0.238098,0.115261,0.003322,-0.373923,0.405228
1515639553,-0.124661,0.289847,0.127477,-0.192948,-0.202192,0.149966
1515639553,-0.099705,0.311835,0.091548,-0.461119,0.109571,-0.131418
1515639553,0.000417,0.299666,0.050617,-0.671546,0.312925,-0.298076
1515639553,0.011158,0.303779,0.056462,-0.756596,0.486862,-0.307015
1515639553,-0.032671,0.319613,0.080634,-0.771691,0.725766,-0.178135
1515639553,-0.049082,0.345541,0.07527,-0.788214,1.003906,-0.00219
1515639553,-0.056289,0.373939,0.104808,-0.797248,1.062978,0.188869
1515639553,-0.123358,0.393652,0.106907,-0.85167,0.845312,0.367068
1515639553,-0.128698,0.424411,0.062676,-0.9764,0.491362,0.439148
1515639553,-0.102011,0.455536,0.083024,-1.198263,0.127292,0.512211
1515639554,-0.224185,0.478354,0.128273,-1.566445,-0.015802,0.781178
1515639554,-0.341121,0.544507,0.165299,-2.108202,0.106092,0.998889
1515639554,-0.238194,0.657046,0.176721,-2.621612,-0.155869,1.263046
1515639554,-0.299231,0.680368,0.219541,-2.982695,-1.135869,1.523324
1515639554,-0.233765,0.585276,0.312151,-3.440083,-1.558939,1.690915
1515639554,-0.121464,0.515886,0.306916,-3.882352,-1.344761,1.797107
1515639554,-0.101453,0.531197,0.220645,-4.049466,-0.981622,1.623648
1515639554,0.000258,0.549797,0.164645,-3.893433,-0.68483,1.040707
1515639554,0.064109,0.537236,0.084065,-3.930375,-0.433732,0.421242
1515639554,0.057299,0.506215,0.023332,-3.931471,0.417228,-0.132899
1515639554,0.082897,0.466472,-0.045912,-3.794997,1.187045,-0.670244
1515639554,0.080348,0.41982,-0.152325,-3.595574,1.750724,-1.131635
1515639554,0.021752,0.366467,-0.222246,-3.299736,1.961881,-1.584794
1515639554,0.01306,0.330769,-0.253529,-2.966348,1.833827,-1.954007
1515639554,-0.017997,0.324943,-0.293953,-2.690051,1.761386,-2.139663
1515639554,-0.047552,0.355045,-0.296724,-2.567976,1.732399,-2.180233
1515639554,-0.032359,0.379414,-0.276865,-2.584634,1.579114,-2.158468
1515639554,-0.004562,0.365315,-0.234584,-2.723074,1.317548,-2.058305
1515639554,-0.024945,0.322115,-0.235705,-2.985775,1.201815,-1.864869
1515639554,-0.062987,0.34811,-0.286658,-3.222674,1.291356,-1.616227
1515639554,0.010563,0.421248,-0.280914,-3.326438,0.982044,-1.477862
1515639554,0.102066,0.402077,-0.239548,-3.518272,0.719003,-1.334024
1515639554,0.122642,0.365822,-0.265346,-3.89921,0.673889,-1.160616
1515639554,0.121972,0.371702,-0.324378,-4.33322,0.478721,-1.07632
1515639554,0.136065,0.369981,-0.349875,-4.731385,0.222159,-1.027433
1515639554,0.114613,0.357467,-0.399237,-5.109598,0.333492,-0.898171
1515639554,0.112231,0.371189,-0.435669,-5.366652,0.398882,-0.838331
1515639554,0.169443,0.334416,-0.432123,-5.54799,0.254418,-0.902962
1515639554,0.190645,0.255548,-0.455889,-5.689485,0.297357,-0.968953
1515639554,0.19436,0.208462,-0.499854,-5.745188,0.416369,-1.06658
1515639554,0.229365,0.179584,-0.510701,-5.690498,0.497868,-1.227204
1515639554,0.254593,0.141739,-0.500713,-5.532041,0.566175,-1.404889
1515639554,0.272951,0.077336,-0.48437,-5.307336,0.635867,-1.556951
1515639554,0.273125,0.028732,-0.488526,-5.06587,0.741746,-1.674742
1515639554,0.294042,0.033966,-0.519372,-4.795497,0.732894,-1.778058
1515639554,0.32166,0.056491,-0.548814,-4.536988,0.738693,-1.807763
1515639554,0.295832,0.053635,-0.574489,-4.308918,0.803619,-1.723175
1515639554,0.293525,0.036021,-0.587532,-4.058379,0.646394,-1.636272
1515639554,0.309489,-0.001577,-0.591759,-3.822553,0.356106,-1.525386
1515639554,0.296544,-0.034847,-0.61128,-3.628239,0.162232,-1.35443
1515639554,0.271966,-0.037452,-0.619296,-3.385595,-0.056921,-1.173961
1515639554,0.268111,-0.03746,-0.59506,-3.117427,-0.374778,-1.020531
1515639554,0.264172,-0.063217,-0.567291,-2.868961,-0.645878,-0.897836
1515639554,0.246528,-0.103834,-0.547897,-2.695439,-0.792942,-0.790669
1515639554,0.239464,-0.110144,-0.554277,-2.558014,-0.855123,-0.690642
1515639554,0.250713,-0.094322,-0.554132,-2.434573,-0.907821,-0.590586
1515639554,0.258458,-0.103947,-0.550873,-2.349377,-0.871501,-0.445414
1515639554,0.261454,-0.122167,-0.547529,-2.26284,-0.753287,-0.296712
1515639554,0.26488,-0.133684,-0.544036,-2.187341,-0.60306,-0.227845
1515639554,0.264084,-0.134673,-0.581923,-2.099541,-0.405704,-0.280318
1515639554,0.255688,-0.126648,-0.612517,-1.990691,-0.179322,-0.414749
1515639554,0.246587,-0.122023,-0.636197,-1.847272,0.006921,-0.582373
1515639554,0.23847,-0.118185,-0.661517,-1.650366,0.077551,-0.74937
1515639554,0.237972,-0.096741,-0.705568,-1.493246,0.067049,-0.875129
1515639554,0.239255,-0.06703,-0.761302,-1.358471,-0.059666,-0.932076
1515639554,0.232752,-0.053069,-0.786703,-1.295722,-0.247587,-0.913612
1515639554,0.221788,-0.07457,-0.81052,-1.282339,-0.409389,-0.810846
1515639554,0.213458,-0.108984,-0.83217,-1.278086,-0.6202,-0.69229
1515639554,0.212008,-0.144003,-0.874871,-1.289701,-0.737537,-0.563771
1515639554,0.205999,-0.149379,-0.924543,-1.267421,-0.716368,-0.463465
1515639554,0.218779,-0.145775,-0.943032,-1.18766,-0.67661,-0.441947
1515639554,0.221531,-0.169203,-0.950351,-1.046025,-0.629955,-0.49073
1515639554,0.20593,-0.192525,-0.964665,-0.848771,-0.48084,-0.562531
1515639554,0.18563,-0.192256,-0.972032,-0.551042,-0.336411,-0.658822
1515639554,0.177212,-0.190772,-0.969126,-0.216971,-0.192859,-0.745505
1515639554,0.166712,-0.196398,-0.979446,0.134361,-0.065215,-0.809859
1515639554,0.151385,-0.230139,-0.966054,0.482374,-0.034393,-0.859675
1515639554,0.136342,-0.276663,-0.965595,0.80871,-0.191886,-0.928379
1515639554,0.14837,-0.26345,-1.021493,1.12436,-0.459984,-1.023119
1515639554,0.191374,-0.163764,-1.081238,1.501591,-0.795842,-1.09358
1515639554,0.275152,-0.108685,-1.053385,1.886875,-1.295629,-1.076213
1515639554,0.336725,-0.128207,-1.011892,2.149747,-1.726276,-0.904045
1515639554,0.367347,-0.131688,-0.99498,2.245872,-1.925307,-0.587108
1515639554,0.377056,-0.091338,-0.968111,2.308853,-1.900293,-0.202127
1515639554,0.380778,-0.045005,-0.884392,2.467222,-1.798042,0.130973
1515639554,0.367726,-0.044946,-0.779259,2.734985,-1.633224,0.350308
1515639554,0.331749,-0.053183,-0.706705,3.120447,-1.381336,0.455977
1515639554,0.29012,-0.03652,-0.631314,3.646585,-1.205017,0.477191
1515639554,0.270018,0.007906,-0.577736,4.243495,-1.054862,0.488738
1515639554,0.222654,0.130329,-0.531457,4.892682,-0.891876,0.599503
1515639554,0.214656,0.301668,-0.46183,5.479272,-0.995022,0.671861
1515639554,0.236769,0.407571,-0.378345,5.804069,-1.208083,0.717002
1515639554,0.217775,0.453589,-0.313487,5.900798,-1.370449,0.810211
1515639554,0.18743,0.487548,-0.255425,5.880927,-1.404009,1.024349
1515639554,0.192282,0.579818,-0.221807,5.933515,-1.523438,1.301074
1515639554,0.216731,0.733823,-0.14382,6.000245,-1.780894,1.515421
1515639554,0.25416,0.86684,-0.051998,5.937024,-2.086661,1.59945
1515639554,0.273793,0.92066,0.065414,5.718755,-2.387707,1.550162
1515639554,0.270782,0.883478,0.186565,5.339306,-2.601171,1.397743
1515639554,0.233004,0.817306,0.261386,4.810642,-2.412566,1.306569
1515639554,0.18525,0.82149,0.291454,4.279487,-2.075251,1.284216
1515639554,0.224784,0.865641,0.32932,3.870149,-1.957356,1.255712
1515639554,0.253908,0.825844,0.384849,3.494295,-1.762898,1.312815
1515639554,0.228786,0.725107,0.40509,3.161024,-1.55023,1.416916
1515639554,0.200367,0.61941,0.404368,2.936776,-1.452734,1.470505
1515639554,0.173824,0.537313,0.387831,2.813218,-1.494846,1.434027
1515639554,0.14933,0.502673,0.35283,2.753585,-1.630021,1.333245
1515639554,0.115671,0.497241,0.300891,2.675492,-1.514392,1.265446
1515639554,0.079297,0.535308,0.239084,2.662388,-1.159187,1.229552
1515639555,0.086432,0.585696,0.244528,2.845966,-1.032445,1.144865
1515639555,0.126288,0.596546,0.300335,3.088578,-1.045609,0.996744
1515639555,0.156401,0.564158,0.326756,3.186266,-0.878903,0.884452
1515639555,0.174793,0.534789,0.313791,3.151333,-0.587564,0.818442
1515639555,0.219523,0.539835,0.315378,3.068641,-0.328458,0.775732
1515639555,0.242018,0.544712,0.318411,2.984491,-0.248024,0.734438
1515639555,0.228851,0.532942,0.289286,2.898332,-0.290917,0.67346
1515639555,0.20304,0.520576,0.249338,2.801734,-0.357352,0.649693
1515639555,0.183677,0.535648,0.190652,2.680899,-0.457984,0.636439
1515639555,0.194529,0.578124,0.152247,2.618442,-0.628445,0.613338
1515639555,0.191498,0.572451,0.171767,2.620747,-0.644426,0.634598
1515639555,0.167929,0.541317,0.206315,2.714683,-0.523791,0.668175
1515639555,0.164602,0.50182,0.252962,2.877221,-0.536696,0.669263
1515639555,0.156131,0.453877,0.27429,3.020529,-0.658209,0.684835
1515639555,0.120046,0.42893,0.251418,3.125813,-0.715093,0.712375
1515639555,0.086972,0.420492,0.231184,3.289637,-0.858808,0.722537
1515639555,0.064468,0.376945,0.246942,3.516401,-1.099038,0.778184
1515639555,0.009058,0.35166,0.253601,3.661767,-0.985876,0.955675
1515639555,-0.06877,0.440659,0.184961,3.674867,-0.452605,1.254192
1515639555,-0.067712,0.621757,0.124009,3.742812,-0.511994,1.354196
1515639555,-0.055407,0.689657,0.176028,3.796006,-0.93051,1.266187
1515639555,-0.098601,0.629576,0.240623,3.723083,-1.234928,1.198834
1515639555,-0.106907,0.549084,0.264431,3.578629,-1.543061,1.181538
1515639555,-0.108887,0.470339,0.280866,3.423093,-1.808797,1.199587
1515639555,-0.127369,0.42751,0.262486,3.256811,-1.848123,1.241997
1515639555,-0.106663,0.455674,0.241482,3.117666,-1.602323,1.298352
1515639555,-0.055501,0.54234,0.247674,2.95839,-1.157652,1.303259
1515639555,0.016377,0.625694,0.261506,2.719287,-0.638852,1.243394
1515639555,0.061033,0.663832,0.282961,2.414878,-0.330748,1.078181
1515639555,0.076828,0.620557,0.326235,2.005736,-0.241197,0.883254
1515639555,0.050312,0.551519,0.32256,1.485227,-0.123762,0.766204
1515639555,0.012957,0.47886,0.296294,1.024642,-0.011436,0.716331
1515639555,0.002,0.380932,0.295633,0.743192,0.033716,0.733439
1515639555,-0.021256,0.280977,0.279095,0.599492,0.090163,0.802892
1515639555,-0.053185,0.241225,0.227162,0.500974,0.336079,0.910438
1515639555,-0.021717,0.279505,0.164849,0.460416,0.440097,0.896977
1515639555,0.062883,0.345045,0.123932,0.380468,0.52393,0.773611
1515639555,0.118325,0.445359,0.076598,0.298705,0.680249,0.57058
1515639555,0.198351,0.581554,0.043842,0.234962,0.849521,0.329231
1515639555,0.309188,0.711513,0.05634,0.191064,1.065694,0.089145
1515639555,0.37845,0.785345,0.133935,0.057872,1.351218,-0.004652
1515639555,0.335759,0.746839,0.193541,-0.284211,1.481945,0.104449
1515639555,0.242446,0.630249,0.174872,-0.806003,1.419949,0.332091
1515639555,0.133324,0.558782,0.138402,-1.296017,1.166749,0.542991
1515639555,0.069244,0.587916,0.09961,-1.583689,0.757617,0.620102
1515639555,0.071064,0.662414,0.093145,-1.587924,0.420695,0.521736
1515639555,0.119155,0.718575,0.133283,-1.490083,0.458879,0.339635
1515639555,0.189893,0.749989,0.182866,-1.437876,0.568354,0.027739
1515639555,0.25729,0.690211,0.251553,-1.577895,0.554591,-0.351901
1515639555,0.297514,0.539113,0.2606,-1.921199,0.685999,-0.54876
1515639555,0.297568,0.386358,0.221344,-2.354648,0.864392,-0.591963
1515639555,0.311207,0.293902,0.171141,-2.700134,0.899678,-0.612241
1515639555,0.311779,0.223986,0.144346,-2.933363,0.930232,-0.603699
1515639555,0.283305,0.15196,0.115648,-3.109033,0.974935,-0.595074
1515639555,0.2689,0.11198,0.083811,-3.231478,1.039145,-0.610864
1515639555,0.264891,0.121744,0.079129,-3.313995,1.062144,-0.644926
1515639555,0.254832,0.137804,0.080926,-3.437895,1.056141,-0.659937
1515639555,0.224341,0.145119,0.048677,-3.666948,1.208872,-0.589072
1515639555,0.199118,0.17788,0.004224,-3.924145,1.290154,-0.502516
1515639555,0.217612,0.170367,-0.026579,-4.129541,1.103584,-0.347716
1515639555,0.224605,0.057831,-0.078449,-4.26551,0.923625,-0.116097
1515639555,0.178247,-0.041265,-0.11091,-4.241229,0.856223,0.124577
1515639555,0.122095,-0.08885,-0.083953,-3.9985,0.738062,0.31824
1515639555,0.075172,-0.098601,-0.052069,-3.687703,0.538631,0.414601
1515639555,0.04517,-0.050851,-0.062849,-3.453961,0.459051,0.463437
1515639555,0.035245,0.046697,-0.070521,-3.315888,0.434353,0.448478
1515639555,0.042097,0.111011,-0.031598,-3.311683,0.436697,0.35787
1515639555,0.037427,0.132298,-0.002336,-3.480912,0.579649,0.200584
1515639555,0.021092,0.156445,0.004634,-3.711557,0.772346,-0.006637
1515639555,0.005428,0.177577,0.018428,-3.934681,0.962864,-0.172286
1515639555,-0.01102,0.214077,0.006249,-4.090551,1.052662,-0.299925
1515639555,-0.014079,0.233105,0.002416,-4.148013,1.024841,-0.370425
1515639555,-0.028111,0.195898,0.024938,-4.115944,0.913369,-0.378322
1515639555,-0.046782,0.143392,0.041896,-4.046296,0.786065,-0.339355
1515639555,-0.083732,0.108798,0.051983,-3.956819,0.599259,-0.271832
1515639555,-0.117419,0.096093,0.035385,-3.882499,0.322021,-0.228134
1515639555,-0.112358,0.129846,0.004722,-3.813244,0.016051,-0.189885
1515639555,-0.089216,0.175159,-0.010749,-3.733286,-0.180408,-0.111745
1515639555,-0.0364,0.219654,-0.017485,-3.665481,-0.226968,-0.042605
1515639555,0.02741,0.253774,-0.026154,-3.577816,-0.121233,-0.019752
1515639555,0.087323,0.260775,-0.023983,-3.468983,0.11133,-0.064608
1515639555,0.141377,0.264494,-0.035046,-3.335613,0.453731,-0.181505
1515639555,0.169368,0.282223,-0.043518,-3.139781,0.854001,-0.333319
1515639555,0.189658,0.296143,-0.03791,-2.877713,1.143113,-0.543117
1515639555,0.219999,0.290252,-0.038014,-2.615354,1.291905,-0.777997
1515639555,0.239006,0.298345,-0.057687,-2.3812,1.377652,-0.951311
1515639555,0.252562,0.322499,-0.076334,-2.185981,1.407622,-1.010798
1515639555,0.264006,0.327102,-0.08703,-2.04012,1.354128,-0.969366
1515639555,0.285828,0.332547,-0.082821,-1.987224,1.193639,-0.880437
1515639555,0.308596,0.338437,-0.08726,-2.053591,1.102581,-0.755038
1515639555,0.32479,0.375189,-0.10196,-2.192763,1.13554,-0.63344
1515639555,0.339948,0.42458,-0.119776,-2.386273,1.259748,-0.557342
1515639555,0.334902,0.455433,-0.154728,-2.597594,1.454182,-0.541737
1515639555,0.316246,0.473538,-0.198129,-2.751262,1.65117,-0.569804
1515639555,0.303933,0.470768,-0.236011,-2.812296,1.770084,-0.640784
1515639555,0.279672,0.432816,-0.271085,-2.821641,1.847838,-0.7183
1515639555,0.22698,0.373337,-0.317472,-2.793355,1.902389,-0.785229
1515639555,0.180391,0.327896,-0.373507,-2.71211,1.895548,-0.845984
1515639555,0.14923,0.29829,-0.42106,-2.569446,1.836927,-0.895189
1515639556,0.11728,0.255969,-0.448299,-2.404545,1.800675,-0.905917
1515639556,0.090526,0.201004,-0.463066,-2.23788,1.802705,-0.912228
1515639556,0.058489,0.131779,-0.460011,-2.05979,1.83882,-0.911998
1515639556,0.022998,0.064394,-0.452178,-1.839563,1.935855,-0.936021
1515639556,0.021059,0.045491,-0.480677,-1.569844,1.992975,-1.057196
1515639556,0.056219,0.095651,-0.521075,-1.15467,1.806827,-1.397822
1515639556,0.153618,0.166715,-0.503548,-0.63859,1.345166,-1.921804
1515639556,0.267292,0.203731,-0.461747,-0.181831,0.834067,-2.371392
1515639556,0.361405,0.237358,-0.430633,0.027517,0.504961,-2.56344
1515639556,0.433863,0.297365,-0.421073,-0.036034,0.343778,-2.455374
1515639556,0.493062,0.328514,-0.402412,-0.306976,0.312763,-2.123013
1515639556,0.540236,0.268576,-0.354195,-0.700543,0.369111,-1.702942
1515639556,0.559331,0.124734,-0.300806,-1.138118,0.558025,-1.230122
1515639556,0.514394,-0.015245,-0.261525,-1.517225,0.889664,-0.704463
1515639556,0.440002,-0.115133,-0.213418,-1.709328,1.327729,-0.211338
1515639556,0.363611,-0.174508,-0.157098,-1.723646,1.828714,0.187247
1515639556,0.260031,-0.229986,-0.132619,-1.63609,2.282846,0.396995
1515639556,0.161296,-0.278407,-0.14836,-1.467547,2.640064,0.400639
1515639556,0.057475,-0.31243,-0.160773,-1.202645,2.862005,0.274793
1515639556,-0.059148,-0.349053,-0.175989,-0.852436,2.879322,0.082065
1515639556,-0.153703,-0.380377,-0.191984,-0.455214,2.678891,-0.101914
1515639556,-0.230765,-0.415513,-0.191403,-0.085374,2.332429,-0.204404
1515639556,-0.288189,-0.434389,-0.202472,0.191932,1.836375,-0.230782
1515639556,-0.328112,-0.449377,-0.212024,0.37211,1.22367,-0.179851
1515639556,-0.34193,-0.444025,-0.211315,0.476618,0.594422,-0.058661
1515639556,-0.326757,-0.401865,-0.201375,0.528021,0.043507,0.09267
1515639556,-0.28147,-0.348448,-0.164362,0.552562,-0.383136,0.240221
1515639556,-0.231675,-0.284132,-0.114268,0.502571,-0.619788,0.359711
1515639556,-0.180073,-0.214056,-0.073349,0.341086,-0.713312,0.393374
1515639556,-0.134645,-0.189343,-0.04523,0.072518,-0.676503,0.36781
1515639556,-0.117707,-0.215835,-0.032028,-0.288258,-0.498767,0.333171
1515639556,-0.125082,-0.256451,-0.054277,-0.676223,-0.271239,0.315778
1515639556,-0.151517,-0.293527,-0.091832,-0.998248,-0.122019,0.291704
1515639556,-0.171548,-0.307949,-0.16057,-1.236737,-0.103091,0.247954
1515639556,-0.192584,-0.303562,-0.259285,-1.380115,-0.194225,0.211274
1515639556,-0.220634,-0.300124,-0.363304,-1.442484,-0.373202,0.19347
1515639556,-0.238619,-0.295296,-0.450163,-1.429922,-0.675135,0.184803
1515639556,-0.245336,-0.292726,-0.530235,-1.341087,-1.018137,0.189866
1515639556,-0.237828,-0.293056,-0.598695,-1.205854,-1.297109,0.214396
1515639556,-0.234383,-0.291198,-0.652682,-1.037324,-1.483407,0.256372
1515639556,-0.224869,-0.279602,-0.704185,-0.851963,-1.644027,0.271807
1515639556,-0.206588,-0.259909,-0.756931,-0.64567,-1.760883,0.266104
1515639556,-0.188552,-0.226921,-0.798886,-0.375339,-1.869929,0.263663
1515639556,-0.162103,-0.180967,-0.816523,-0.043969,-1.993454,0.238808
1515639556,-0.130179,-0.128898,-0.820093,0.308282,-2.067912,0.198166
1515639556,-0.102796,-0.09353,-0.822165,0.651958,-2.029706,0.165436
1515639556,-0.075396,-0.09348,-0.809852,0.980924,-1.906567,0.157558
1515639556,-0.048205,-0.110187,-0.784385,1.309608,-1.753709,0.172184
1515639556,-0.019945,-0.114762,-0.75733,1.62762,-1.601971,0.187869
1515639556,0.008854,-0.096107,-0.736294,1.914464,-1.431292,0.212142
1515639556,0.033971,-0.070749,-0.708552,2.195569,-1.328731,0.247868
1515639556,0.066797,-0.043884,-0.675928,2.444051,-1.275357,0.322828
1515639556,0.092228,-0.002936,-0.654055,2.623087,-1.220384,0.452129
1515639556,0.121326,0.0382,-0.640332,2.714758,-1.190426,0.603674
1515639556,0.148019,0.058947,-0.621685,2.72843,-1.159879,0.769044
1515639556,0.156673,0.060553,-0.592322,2.710836,-1.100796,0.934515
1515639556,0.151515,0.058209,-0.564062,2.688305,-0.974709,1.08426
1515639556,0.143608,0.084953,-0.55402,2.691491,-0.858993,1.178538
1515639556,0.139867,0.12381,-0.544971,2.746362,-0.785422,1.233228
1515639556,0.129624,0.167692,-0.53949,2.860483,-0.761454,1.27496
1515639556,0.121866,0.214034,-0.5379,3.023678,-0.840323,1.294977
1515639556,0.118283,0.251168,-0.536358,3.177302,-0.92355,1.330957
1515639556,0.108166,0.287148,-0.535913,3.311646,-1.001553,1.364823
1515639556,0.117044,0.313746,-0.521049,3.450419,-1.096464,1.368778
1515639556,0.144664,0.336835,-0.497375,3.614865,-1.195467,1.35993
1515639556,0.171638,0.370083,-0.479562,3.837914,-1.277128,1.356511
1515639556,0.212109,0.422123,-0.462515,4.114011,-1.320204,1.353271
1515639556,0.27513,0.476708,-0.438092,4.405804,-1.328155,1.374698
1515639556,0.334794,0.53017,-0.431035,4.688502,-1.166209,1.489552
1515639556,0.392655,0.64048,-0.434087,4.95729,-0.890663,1.650693
1515639556,0.461347,0.767449,-0.430006,5.204365,-0.690682,1.785938
1515639556,0.524387,0.88096,-0.428211,5.435122,-0.572568,1.871808
1515639556,0.563408,1.004751,-0.421713,5.651947,-0.453336,1.89691
1515639556,0.56098,1.11691,-0.392982,5.822111,-0.261988,1.894562
1515639556,0.51005,1.219391,-0.365756,5.972606,-0.028136,1.855061
1515639556,0.484011,1.3177,-0.313183,6.124983,0.007121,1.696428
1515639556,0.448718,1.372283,-0.223774,6.237084,-0.105441,1.435908
1515639556,0.401139,1.359121,-0.124492,6.296021,-0.357465,1.106576
1515639556,0.37697,1.321415,-0.03108,6.304636,-0.709692,0.753363
1515639556,0.346097,1.287776,0.07104,6.238264,-1.04117,0.434307
1515639556,0.30804,1.236723,0.160896,6.034055,-1.260806,0.163613
1515639556,0.295379,1.173569,0.230068,5.70073,-1.273021,0.019488
1515639556,0.283646,1.120639,0.288246,5.304162,-1.037171,0.060756
1515639556,0.307778,1.09529,0.361637,4.927757,-0.890774,0.212551
1515639556,0.324285,1.037904,0.457371,4.553223,-0.934807,0.394494
1515639556,0.327324,0.947558,0.538056,4.135935,-1.086519,0.584512
1515639556,0.309898,0.868816,0.581031,3.600199,-1.254833,0.763748
1515639556,0.300955,0.827216,0.570454,2.975289,-1.375696,0.895158
1515639556,0.291066,0.783482,0.558984,2.391167,-1.518512,0.962536
1515639556,0.282718,0.710072,0.579275,2.005679,-1.761113,0.986968
1515639556,0.277909,0.615785,0.623642,1.859082,-2.067198,0.999529
1515639556,0.254791,0.550891,0.651627,1.826574,-2.23867,1.025475
1515639556,0.237615,0.554387,0.641462,1.796091,-2.180376,1.035289
1515639556,0.240069,0.597862,0.612255,1.732016,-1.857382,1.005638
1515639556,0.279289,0.619892,0.605905,1.666302,-1.478945,0.911181
1515639556,0.311517,0.571984,0.657024,1.642916,-1.171361,0.74503
1515639556,0.332072,0.493718,0.720719,1.57676,-0.973411,0.512323
1515639556,0.345408,0.439619,0.75314,1.415719,-0.798299,0.261355
1515639556,0.329174,0.404565,0.774808,1.1584,-0.609991,0.045575
1515639557,0.30208,0.373269,0.769561,0.805832,-0.402193,-0.092346
1515639557,0.267472,0.353573,0.748413,0.411022,-0.239589,-0.10574
1515639557,0.231026,0.343984,0.716124,0.020229,-0.265415,-0.027145
1515639557,0.223467,0.331313,0.667821,-0.351533,-0.484852,0.131709
1515639557,0.223585,0.316658,0.609505,-0.72289,-0.742682,0.344783
1515639557,0.229416,0.310928,0.556027,-1.074236,-0.971676,0.549449
1515639557,0.224253,0.301346,0.530347,-1.372903,-1.015306,0.744222
1515639557,0.196308,0.295884,0.512147,-1.647353,-0.694022,0.93834
1515639557,0.185464,0.32426,0.482473,-1.837451,-0.260461,1.071112
1515639557,0.201666,0.364127,0.484205,-1.859245,-0.108475,1.055721
1515639557,0.208735,0.37067,0.508669,-1.779607,-0.173597,0.903054
1515639557,0.200006,0.365377,0.509645,-1.714477,-0.180133,0.665324
1515639557,0.176025,0.366538,0.501037,-1.707479,-0.034842,0.390864
1515639557,0.163606,0.372261,0.490291,-1.76472,0.120836,0.062045
1515639557,0.164617,0.378201,0.479038,-1.880021,0.202846,-0.288421
1515639557,0.166089,0.393454,0.458832,-2.062684,0.290796,-0.612241
1515639557,0.180554,0.430968,0.42361,-2.287338,0.415542,-0.853846
1515639557,0.201652,0.469839,0.396806,-2.512844,0.634599,-0.947955
1515639557,0.196333,0.504083,0.372665,-2.704607,1.017273,-0.882543
1515639557,0.202817,0.525813,0.373061,-2.791266,1.25363,-0.749443
1515639557,0.208582,0.502705,0.39739,-2.797405,1.233035,-0.596017
1515639557,0.181841,0.47135,0.408546,-2.824473,1.168672,-0.418254
1515639557,0.132343,0.475765,0.401741,-2.914438,1.199606,-0.219886
1515639557,0.085657,0.52204,0.380715,-3.069826,1.254675,-0.040639
1515639557,0.056205,0.589506,0.347497,-3.254438,1.234308,0.040219
1515639557,0.045108,0.651451,0.315667,-3.461988,1.149199,-0.001798
1515639557,0.019594,0.723574,0.263448,-3.726387,1.194602,-0.061444
1515639557,-0.000563,0.830274,0.189545,-3.969426,1.240188,-0.144531
1515639557,0.001786,0.937188,0.146838,-4.191818,1.140244,-0.247379
1515639557,-0.019513,0.99526,0.104372,-4.462734,0.975182,-0.365438
1515639557,-0.04279,0.99783,0.044486,-4.778106,0.875808,-0.488587
1515639557,-0.048362,0.986575,-0.003792,-5.016059,0.726899,-0.611896
1515639557,-0.017354,0.984768,-0.017617,-5.173961,0.478451,-0.720641
1515639557,0.014713,0.95935,-0.044551,-5.330153,0.276669,-0.769498
1515639557,0.046898,0.930609,-0.092612,-5.540034,0.214797,-0.744258
1515639557,0.063028,0.93465,-0.149072,-5.794847,0.267525,-0.722846
1515639557,0.069842,0.938381,-0.214608,-6.014307,0.305784,-0.801689
1515639557,0.113984,0.930145,-0.28632,-6.099572,0.27282,-1.020407
1515639557,0.183522,0.92779,-0.329166,-6.047969,0.226959,-1.302009
1515639557,0.267271,0.95109,-0.388058,-5.944969,0.170725,-1.56977
1515639557,0.371137,1.030777,-0.484542,-5.84688,0.074886,-1.738549
1515639557,0.471011,1.093556,-0.568934,-5.780245,-0.184185,-1.753416
1515639557,0.547925,1.060581,-0.629805,-5.726624,-0.522479,-1.561784
1515639557,0.569023,0.938574,-0.642727,-5.674247,-0.723041,-1.148927
1515639557,0.544731,0.771121,-0.618683,-5.569834,-0.775761,-0.616056
1515639557,0.512832,0.606708,-0.578706,-5.433898,-0.663488,-0.067579
1515639557,0.451118,0.479141,-0.545905,-5.281137,-0.415977,0.444134
1515639557,0.383329,0.376434,-0.535089,-5.059918,-0.071082,0.860326
1515639557,0.300004,0.319916,-0.515387,-4.727395,0.357741,1.127657
1515639557,0.202745,0.263467,-0.498148,-4.342928,0.929753,1.221817
1515639557,0.119767,0.193881,-0.510282,-3.947257,1.549036,1.132808
1515639557,0.045336,0.145297,-0.534034,-3.537246,2.114523,0.883678
1515639557,-0.015579,0.111854,-0.555507,-3.137658,2.538752,0.528437
1515639557,-0.069131,0.057959,-0.59074,-2.7743,2.842627,0.159902
1515639557,-0.115369,-0.006914,-0.639839,-2.459812,3.009999,-0.16763
1515639557,-0.148954,-0.055752,-0.681661,-2.126744,3.029488,-0.417921
1515639557,-0.161483,-0.080049,-0.712849,-1.774017,2.900051,-0.595236
1515639557,-0.144041,-0.105309,-0.737015,-1.429205,2.709736,-0.682187
1515639557,-0.119204,-0.146465,-0.739884,-1.089297,2.47878,-0.681888
1515639557,-0.087033,-0.174744,-0.708448,-0.76939,2.218914,-0.643333
1515639557,-0.035462,-0.198117,-0.670818,-0.52638,1.95644,-0.585636
1515639557,0.005204,-0.243728,-0.644372,-0.395162,1.764461,-0.477604
1515639557,0.020894,-0.282772,-0.629118,-0.343506,1.624076,-0.342752
1515639557,0.023201,-0.324188,-0.611771,-0.365471,1.472638,-0.21011
1515639557,0.010932,-0.382656,-0.60437,-0.432542,1.344329,-0.077401
1515639557,-0.022323,-0.411815,-0.618343,-0.521505,1.271137,0.085372
1515639557,-0.050228,-0.375723,-0.650187,-0.580191,1.16195,0.256547
1515639557,-0.065309,-0.312177,-0.674695,-0.573282,0.898998,0.396217
1515639557,-0.091253,-0.276402,-0.686604,-0.561687,0.592527,0.509061
1515639557,-0.116606,-0.253543,-0.713594,-0.589935,0.3157,0.581496
1515639557,-0.144634,-0.220073,-0.746772,-0.681672,0.082229,0.603971
1515639557,-0.171755,-0.186969,-0.776445,-0.815277,-0.134333,0.56466
1515639557,-0.18785,-0.172473,-0.810169,-0.956392,-0.349789,0.485904
1515639557,-0.208604,-0.172385,-0.840149,-1.047832,-0.508627,0.422325
1515639557,-0.235648,-0.179044,-0.861655,-1.084944,-0.538604,0.413657
1515639557,-0.265939,-0.164745,-0.891217,-1.060592,-0.515092,0.424423
1515639557,-0.279231,-0.127426,-0.925552,-0.947833,-0.573946,0.401854
1515639557,-0.274851,-0.110064,-0.944004,-0.777271,-0.754681,0.339378
1515639557,-0.274452,-0.127886,-0.960812,-0.599408,-0.916253,0.289778
1515639557,-0.28024,-0.157599,-0.971733,-0.417988,-1.003427,0.266061
1515639557,-0.287303,-0.184028,-0.974451,-0.240232,-1.042821,0.263853
1515639557,-0.296508,-0.201424,-0.980658,-0.023888,-1.094733,0.254153
1515639557,-0.283583,-0.214535,-0.966395,0.279401,-1.298137,0.208707
1515639557,-0.261251,-0.218582,-0.949724,0.611853,-1.534319,0.151416
1515639557,-0.238986,-0.201165,-0.946048,0.909495,-1.705884,0.119954
1515639557,-0.208133,-0.164555,-0.951499,1.152084,-1.819323,0.108954
1515639557,-0.169759,-0.117604,-0.950114,1.365416,-1.890436,0.116231
1515639557,-0.139788,-0.061868,-0.935632,1.554148,-1.958518,0.133105
1515639557,-0.101649,-0.011977,-0.918448,1.755959,-2.053084,0.140286
1515639557,-0.056628,0.019474,-0.89588,1.946013,-2.258262,0.120364
1515639557,-0.00674,0.05971,-0.896578,2.086507,-2.42119,0.104854
1515639557,0.039817,0.133394,-0.911638,2.172874,-2.511123,0.119459
1515639557,0.083505,0.210207,-0.927153,2.24804,-2.547987,0.147061
1515639557,0.134875,0.273872,-0.931333,2.317579,-2.555107,0.180114
1515639557,0.200458,0.332562,-0.930458,2.414347,-2.505703,0.211274
1515639557,0.247196,0.365755,-0.895309,2.570045,-2.362427,0.265226
1515639557,0.283715,0.374973,-0.86109,2.777802,-2.188023,0.325726
1515639557,0.324602,0.400294,-0.855352,3.024314,-2.04522,0.348804
1515639557,0.362896,0.466706,-0.863628,3.322043,-1.895708,0.357008
1515639558,0.392413,0.560705,-0.868897,3.672822,-1.706595,0.387783
1515639558,0.426713,0.667435,-0.867732,4.102036,-1.671243,0.42011
1515639558,0.483351,0.790543,-0.863666,4.573635,-1.70901,0.446835
1515639558,0.545265,0.932439,-0.853538,5.017517,-1.642772,0.498484
1515639558,0.592924,1.063294,-0.815846,5.491236,-1.568888,0.536318
1515639558,0.627378,1.142839,-0.723832,6.044711,-1.567812,0.521659
1515639558,0.6569,1.194055,-0.609971,6.62973,-1.514432,0.502962
1515639558,0.692612,1.278275,-0.501117,7.221014,-1.446099,0.477937
1515639558,0.759971,1.409511,-0.398786,7.746907,-1.46843,0.399208
1515639558,0.841851,1.550473,-0.306509,8.091192,-1.496024,0.303312
1515639558,0.903077,1.651314,-0.215271,8.184274,-1.401777,0.246166
1515639558,0.942399,1.650738,-0.115763,8.024392,-1.225029,0.216949
1515639558,0.945892,1.581635,-0.015964,7.707289,-0.918612,0.292653
1515639558,0.908577,1.473247,0.090648,7.330263,-0.710482,0.413773
1515639558,0.869696,1.385234,0.162517,6.903767,-0.46662,0.598979
1515639558,0.789485,1.425726,0.205834,6.456463,0.162923,0.895532
1515639558,0.746725,1.520349,0.285687,6.12622,0.396758,1.056224
1515639558,0.726016,1.495605,0.407545,5.849025,0.224957,1.079922
1515639558,0.637448,1.389965,0.508055,5.438622,0.124771,1.077193
1515639558,0.533864,1.275544,0.555156,4.889456,0.117427,1.045982
1515639558,0.453231,1.174641,0.601469,4.372128,0.02207,0.987785
1515639558,0.378427,1.08151,0.667944,3.963028,-0.214099,0.928011
1515639558,0.317583,1.00782,0.714271,3.653218,-0.55178,0.860413
1515639558,0.271838,0.966137,0.738501,3.40612,-0.743515,0.843537
1515639558,0.228942,0.9726,0.761394,3.231641,-0.708509,0.910757
1515639558,0.233103,0.989497,0.81683,3.186372,-0.885398,0.950535
1515639558,0.248187,0.939057,0.9016,3.157534,-1.213186,0.98332
1515639558,0.246602,0.873306,0.948792,2.986465,-1.419494,1.017592
1515639558,0.252884,0.826444,0.973691,2.649521,-1.491629,1.023538
1515639558,0.269264,0.776244,0.991922,2.221008,-1.488728,1.00629
1515639558,0.269519,0.69985,1.021513,1.79602,-1.409232,0.986151
1515639558,0.265833,0.613011,1.058621,1.417095,-1.34222,0.958521
1515639558,0.246083,0.532474,1.070656,1.030936,-1.300748,0.921191
1515639558,0.216181,0.493303,1.028561,0.559106,-1.020514,0.895439
1515639558,0.209526,0.518572,0.951053,0.072529,-0.654156,0.840175
1515639558,0.2257,0.557029,0.892362,-0.311132,-0.433873,0.74173
1515639558,0.22456,0.55854,0.860887,-0.59796,-0.392689,0.612764
1515639558,0.226542,0.540914,0.809988,-0.872206,-0.436477,0.472805
1515639558,0.216271,0.519393,0.757176,-1.163805,-0.453806,0.34147
1515639558,0.214615,0.476078,0.716152,-1.452473,-0.442413,0.218784
1515639558,0.226581,0.428729,0.681369,-1.728911,-0.370355,0.101673
1515639558,0.23787,0.39728,0.654181,-1.979048,-0.145104,0.023565
1515639558,0.241603,0.37758,0.625618,-2.165111,0.194283,-0.040192
1515639558,0.240859,0.364831,0.606826,-2.239426,0.470489,-0.096686
1515639558,0.214209,0.349299,0.597487,-2.202823,0.659036,-0.14282
1515639558,0.19144,0.334679,0.586201,-2.113518,0.702218,-0.201238
1515639558,0.166053,0.32388,0.562668,-2.047155,0.686817,-0.27696
1515639558,0.136472,0.323676,0.536041,-1.984484,0.72137,-0.349284
1515639558,0.096642,0.320648,0.546304,-1.910447,0.798395,-0.362799
1515639558,0.07917,0.330747,0.542737,-1.850584,0.794521,-0.383044
1515639558,0.069831,0.377586,0.541042,-1.835402,0.880763,-0.389088
1515639558,0.050148,0.435989,0.551162,-1.860976,0.982747,-0.400413
1515639558,0.047055,0.483921,0.566271,-1.922132,1.006925,-0.431261
1515639558,0.036954,0.541131,0.579561,-2.043452,1.064759,-0.451345
1515639558,0.029225,0.618374,0.577866,-2.227543,1.095627,-0.459837
1515639558,0.025516,0.691122,0.568392,-2.440875,1.058222,-0.448361
1515639558,0.02022,0.752073,0.550112,-2.741698,1.008572,-0.417787
1515639558,0.006089,0.8131,0.481537,-3.173482,1.021927,-0.361435
1515639558,-0.018205,0.909982,0.378906,-3.631593,0.993737,-0.343643
1515639558,-0.022555,1.038942,0.290977,-4.036702,0.897864,-0.360212
1515639558,0.007225,1.183427,0.206958,-4.358555,0.698402,-0.444319
1515639558,0.054605,1.307631,0.148205,-4.653626,0.488618,-0.596681
1515639558,0.085724,1.355149,0.087149,-5.014194,0.417894,-0.805021
1515639558,0.094586,1.313809,0.021798,-5.402202,0.418385,-1.070659
1515639558,0.114778,1.221079,-0.02189,-5.711205,0.425733,-1.342625
1515639558,0.131339,1.125698,-0.046872,-5.895196,0.436836,-1.546287
1515639558,0.15547,1.048215,-0.083491,-5.983773,0.419587,-1.66793
1515639558,0.20654,1.017511,-0.142505,-5.998075,0.351498,-1.68953
1515639558,0.238581,1.011091,-0.202608,-5.988187,0.325928,-1.643786
1515639558,0.271541,0.972702,-0.27013,-5.934754,0.327201,-1.60218
1515639558,0.318236,0.933218,-0.338826,-5.773966,0.273935,-1.623639
1515639558,0.389242,0.940547,-0.404035,-5.514701,0.089537,-1.724468
1515639558,0.487756,0.9868,-0.481798,-5.259506,-0.224641,-1.817289
1515639558,0.602012,1.05524,-0.584814,-5.090791,-0.539597,-1.78329
1515639558,0.695459,1.139832,-0.672,-5.01892,-0.775791,-1.553932
1515639558,0.747639,1.156277,-0.707738,-4.999764,-0.965944,-1.127192
1515639558,0.758146,1.040689,-0.684142,-5.089569,-1.04321,-0.574253
1515639558,0.730885,0.852279,-0.660734,-5.330555,-0.847033,0.008496
1515639558,0.666987,0.683485,-0.668328,-5.582183,-0.43917,0.538784
1515639558,0.571854,0.54641,-0.677335,-5.694336,0.124975,0.974887
1515639558,0.459825,0.468586,-0.700879,-5.577295,0.736504,1.257773
1515639558,0.355897,0.424535,-0.7269,-5.252775,1.318833,1.338085
1515639558,0.245492,0.360661,-0.734846,-4.790638,1.914118,1.212765
1515639558,0.150563,0.280834,-0.751371,-4.261108,2.493159,0.915773
1515639558,0.071096,0.184189,-0.775176,-3.70033,3.04171,0.542982
1515639558,0.003015,0.09808,-0.789293,-3.133414,3.508432,0.160272
1515639558,-0.035619,0.01335,-0.801868,-2.594285,3.759015,-0.180676
1515639558,-0.055311,-0.073753,-0.824605,-2.128788,3.784631,-0.451132
1515639558,-0.058617,-0.151719,-0.847143,-1.782453,3.654025,-0.602874
1515639558,-0.062552,-0.223334,-0.871406,-1.526006,3.434321,-0.616427
1515639558,-0.067909,-0.273469,-0.881326,-1.275005,3.120777,-0.529082
1515639558,-0.048157,-0.290951,-0.871893,-1.011883,2.66155,-0.415663
1515639558,-0.022707,-0.305325,-0.855221,-0.770647,2.257392,-0.256192
1515639558,-0.024912,-0.309378,-0.82765,-0.55592,2.05393,-0.0341
1515639558,-0.009375,-0.270618,-0.803168,-0.384697,1.816336,0.124939
1515639558,0.016067,-0.237147,-0.778604,-0.281373,1.524366,0.179258
1515639558,0.015452,-0.238065,-0.757641,-0.262444,1.338298,0.210503
1515639558,-0.009574,-0.245629,-0.739496,-0.313708,1.227358,0.231355
1515639558,-0.025743,-0.249858,-0.727771,-0.406221,1.071586,0.220026
1515639559,-0.037092,-0.265831,-0.726838,-0.531608,0.890076,0.214969
1515639559,-0.06447,-0.276851,-0.739484,-0.649711,0.729849,0.228129
1515639559,-0.083741,-0.262717,-0.762736,-0.714704,0.492321,0.231412
1515639559,-0.09664,-0.247273,-0.789647,-0.730996,0.302831,0.275419
1515639559,-0.122492,-0.233096,-0.814639,-0.705758,0.129461,0.351494
1515639559,-0.128106,-0.228269,-0.839567,-0.656877,-0.05863,0.412595
1515639559,-0.127723,-0.231505,-0.857114,-0.595957,-0.167909,0.449495
1515639559,-0.137461,-0.235765,-0.861012,-0.501576,-0.202525,0.477119
1515639559,-0.156937,-0.239565,-0.859198,-0.355757,-0.252769,0.494045
1515639559,-0.172775,-0.243134,-0.865227,-0.153085,-0.327091,0.484249
1515639559,-0.193443,-0.24593,-0.86882,0.053501,-0.253636,0.505964
1515639559,-0.225905,-0.233279,-0.873765,0.307862,-0.148034,0.539557
1515639559,-0.236751,-0.233859,-0.857596,0.627005,-0.221733,0.549007
1515639559,-0.248893,-0.259568,-0.834283,0.933628,-0.325325,0.578587
1515639559,-0.264559,-0.253381,-0.83132,1.166304,-0.406999,0.601822
1515639559,-0.266916,-0.217929,-0.833971,1.352227,-0.517546,0.57908
1515639559,-0.276121,-0.187576,-0.810504,1.51144,-0.629255,0.535
1515639559,-0.283565,-0.156385,-0.783637,1.624284,-0.698665,0.476141
1515639559,-0.279056,-0.117575,-0.755767,1.709244,-0.869168,0.373154
1515639559,-0.257054,-0.088403,-0.735597,1.735734,-1.069794,0.276415
1515639559,-0.242685,-0.082254,-0.727662,1.69263,-1.253894,0.222354
1515639559,-0.220468,-0.076615,-0.731688,1.619897,-1.465904,0.205478
1515639559,-0.185037,-0.039891,-0.751069,1.574185,-1.708651,0.208744
1515639559,-0.128212,0.028547,-0.769807,1.559617,-1.967172,0.215163
1515639559,-0.073017,0.09482,-0.784537,1.581078,-2.193632,0.245182
1515639559,-0.022343,0.144834,-0.793692,1.637812,-2.420979,0.284807
1515639559,0.035889,0.172249,-0.79711,1.70291,-2.62814,0.353301
1515639559,0.091265,0.197789,-0.812413,1.746759,-2.736592,0.455229
1515639559,0.142792,0.236772,-0.840365,1.780003,-2.744075,0.555425
1515639559,0.200819,0.276582,-0.863131,1.847859,-2.68642,0.627115
1515639559,0.261667,0.31037,-0.861112,1.992547,-2.509186,0.688663
1515639559,0.313794,0.322872,-0.842997,2.274065,-2.22908,0.749621
1515639559,0.357087,0.349993,-0.823657,2.708785,-1.882092,0.781071
1515639559,0.390127,0.401514,-0.79869,3.22986,-1.517495,0.767856
1515639559,0.414044,0.465811,-0.786168,3.725482,-1.062653,0.759258
1515639559,0.422032,0.570107,-0.798406,4.18422,-0.659149,0.783482
1515639559,0.435145,0.680728,-0.800366,4.668207,-0.541639,0.837488
1515639559,0.441536,0.785232,-0.781189,5.17003,-0.607049,0.937675
1515639559,0.444811,0.918954,-0.751434,5.652687,-0.675938,1.113527
1515639559,0.450987,1.044242,-0.702067,6.108526,-0.843851,1.278312
1515639559,0.479517,1.135808,-0.63358,6.580523,-1.140083,1.324255
1515639559,0.543753,1.242202,-0.532713,7.026711,-1.42657,1.227371
1515639559,0.581124,1.340482,-0.427529,7.400955,-1.570802,1.060665
1515639559,0.60835,1.423465,-0.346637,7.582705,-1.372554,0.854729
1515639559,0.6375,1.552112,-0.286604,7.587034,-0.950936,0.647469
1515639559,0.689003,1.656489,-0.199453,7.525793,-0.708336,0.434133
1515639559,0.725936,1.683284,-0.079733,7.354361,-0.55695,0.306732
1515639559,0.710979,1.621517,0.039844,6.988358,-0.278364,0.338592
1515639559,0.662036,1.501424,0.140575,6.50081,-0.021981,0.474779
1515639559,0.615785,1.358707,0.244161,5.992961,0.017259,0.646333
1515639559,0.55012,1.212642,0.334232,5.495198,-0.09982,0.838586
1515639559,0.476348,1.093783,0.390445,5.004019,-0.344458,1.022867
1515639559,0.424962,1.03874,0.399205,4.576187,-0.731166,1.17356
1515639559,0.393888,1.048981,0.402947,4.264845,-1.232964,1.254553
1515639559,0.355739,1.066172,0.423893,3.989666,-1.386924,1.389194
1515639559,0.279634,1.127127,0.410643,3.700603,-0.880752,1.614963
1515639559,0.307332,1.230597,0.426522,3.658443,-0.832022,1.591684
1515639559,0.359119,1.205831,0.562133,3.718158,-1.157704,1.386786
1515639559,0.347468,1.087537,0.672562,3.627314,-1.277787,1.119746
1515639559,0.325994,0.983777,0.738346,3.403941,-1.176364,0.848198
1515639559,0.311514,0.889305,0.807085,3.168973,-1.089952,0.601103
1515639559,0.305594,0.799862,0.869052,2.951118,-1.113053,0.387693
1515639559,0.300676,0.744047,0.910412,2.711539,-1.207615,0.209164
1515639559,0.30826,0.701573,0.926798,2.416115,-1.270708,0.08404
1515639559,0.311884,0.666991,0.93263,2.063666,-1.178049,0.074653
1515639559,0.27908,0.645246,0.923028,1.633571,-0.786305,0.224204
1515639559,0.262986,0.630464,0.902298,1.255376,-0.453987,0.444965
1515639559,0.266589,0.604818,0.915949,0.962925,-0.367847,0.645593
1515639559,0.269005,0.587672,0.924073,0.676377,-0.450635,0.79438
1515639559,0.26279,0.570146,0.912355,0.335446,-0.54747,0.897238
1515639559,0.240526,0.561878,0.882919,-0.104482,-0.575658,0.95768
1515639559,0.205959,0.545831,0.84256,-0.553816,-0.628217,0.957255
1515639559,0.181874,0.509138,0.815649,-0.938297,-0.758996,0.90964
1515639559,0.160306,0.464038,0.785782,-1.237178,-0.903052,0.837493
1515639559,0.139302,0.426647,0.752185,-1.485951,-0.816087,0.782288
1515639559,0.118264,0.422363,0.7116,-1.695971,-0.539603,0.727861
1515639559,0.133837,0.425785,0.67172,-1.813899,-0.396406,0.59619
1515639559,0.145171,0.406012,0.650827,-1.848339,-0.269683,0.432506
1515639559,0.12949,0.38925,0.638794,-1.851098,0.006045,0.296087
1515639559,0.138039,0.39662,0.6093,-1.778773,0.139843,0.096236
1515639559,0.168509,0.381901,0.604166,-1.665711,0.148481,-0.14674
1515639559,0.175913,0.33369,0.606328,-1.618332,0.209864,-0.366083
1515639559,0.172312,0.294178,0.590811,-1.645032,0.309023,-0.547996
1515639559,0.177183,0.281956,0.57587,-1.680138,0.286784,-0.679229
1515639559,0.184394,0.285296,0.553383,-1.746526,0.300266,-0.695197
1515639559,0.165972,0.334809,0.509518,-1.859301,0.474826,-0.577282
1515639559,0.173078,0.424768,0.476494,-1.962011,0.496212,-0.417334
1515639559,0.185336,0.508027,0.469228,-2.094561,0.511992,-0.206251
1515639559,0.174811,0.594743,0.45561,-2.30894,0.593153,0.0413
1515639559,0.156481,0.667529,0.444645,-2.571532,0.574255,0.208473
1515639559,0.14215,0.70211,0.433783,-2.921492,0.635833,0.307698
1515639559,0.111196,0.740992,0.396752,-3.348779,0.843874,0.341378
1515639559,0.077459,0.777378,0.352496,-3.744178,0.953486,0.24675
1515639559,0.053056,0.809464,0.297881,-4.081193,0.988146,0.053769
1515639559,0.030565,0.86278,0.228641,-4.328776,1.054227,-0.172093
1515639559,0.01703,0.924665,0.167124,-4.484256,1.099542,-0.384134
1515639559,-0.000089,0.974262,0.090583,-4.630796,1.105518,-0.580339
1515639559,-0.025647,1.017372,-0.008137,-4.789236,1.127346,-0.759427
1515639559,-0.02887,1.039778,-0.089737,-4.903243,0.975079,-0.961577
1515639559,-0.014734,1.010864,-0.143312,-4.976022,0.760224,-1.131979
1515639560,0.012588,0.95709,-0.176959,-4.995664,0.578488,-1.231861
1515639560,0.059338,0.910654,-0.200173,-5.059878,0.479237,-1.240818
1515639560,0.094668,0.859712,-0.24982,-5.153418,0.429747,-1.226136
1515639560,0.129691,0.818821,-0.305149,-5.237242,0.480247,-1.19719
1515639560,0.153992,0.832742,-0.361751,-5.226258,0.447441,-1.242092
1515639560,0.212502,0.854935,-0.397305,-5.079545,0.189086,-1.370987
1515639560,0.281573,0.858609,-0.421096,-4.914934,-0.150045,-1.473545
1515639560,0.354058,0.893729,-0.497151,-4.87886,-0.450852,-1.450215
1515639560,0.44024,0.986537,-0.616926,-4.958612,-0.700568,-1.271089
1515639560,0.529561,1.06187,-0.680674,-5.081077,-0.945554,-0.93845
1515639560,0.57516,1.013258,-0.682593,-5.231045,-1.102737,-0.467947
1515639560,0.557459,0.857423,-0.667184,-5.378724,-1.055778,0.026829
1515639560,0.498489,0.674586,-0.638996,-5.479948,-0.844648,0.465786
1515639560,0.408308,0.517016,-0.60644,-5.5109,-0.502154,0.833874
1515639560,0.303505,0.410099,-0.598477,-5.436864,-0.083341,1.103169
1515639560,0.212849,0.349732,-0.596161,-5.191044,0.353827,1.220175
1515639560,0.128877,0.288575,-0.594002,-4.838186,0.87588,1.225638
1515639560,0.038122,0.221791,-0.608661,-4.388671,1.450872,1.106626
1515639560,-0.041104,0.170038,-0.623651,-3.903362,1.964704,0.848797
1515639560,-0.099076,0.127165,-0.65444,-3.405017,2.340652,0.459294
1515639560,-0.141166,0.080092,-0.681333,-2.92245,2.689972,0.047287
1515639560,-0.181311,0.03929,-0.710042,-2.469893,2.940177,-0.345941
1515639560,-0.195085,-0.001235,-0.74303,-2.030515,3.01051,-0.701512
1515639560,-0.196026,-0.040943,-0.763679,-1.609936,2.930583,-0.973482
1515639560,-0.1866,-0.062226,-0.773532,-1.228015,2.766129,-1.12535
1515639560,-0.16804,-0.092075,-0.767844,-0.890673,2.468232,-1.155169
1515639560,-0.138198,-0.144011,-0.750187,-0.629548,2.101632,-1.093616
1515639560,-0.114493,-0.20753,-0.725441,-0.453378,1.794951,-0.939116
1515639560,-0.097659,-0.262704,-0.698478,-0.331715,1.601648,-0.735144
1515639560,-0.081995,-0.306786,-0.671663,-0.24804,1.467705,-0.545881
1515639560,-0.057673,-0.342771,-0.649826,-0.171596,1.306165,-0.399375
1515639560,-0.044944,-0.362924,-0.628035,-0.093659,1.09901,-0.298892
1515639560,-0.04976,-0.339613,-0.609058,-0.020958,0.879128,-0.230447
1515639560,-0.076453,-0.298984,-0.597742,0.01566,0.744099,-0.151015
1515639560,-0.103155,-0.250389,-0.607638,-0.003026,0.691712,-0.075543
1515639560,-0.12333,-0.210843,-0.61237,-0.085613,0.615663,-0.044972
1515639560,-0.146662,-0.211067,-0.61426,-0.250093,0.499847,-0.032718
1515639560,-0.183887,-0.238396,-0.636029,-0.464433,0.346527,-0.025973
1515639560,-0.222378,-0.251939,-0.670017,-0.673902,0.131566,-0.026936
1515639560,-0.256488,-0.240637,-0.709321,-0.827774,-0.086281,-0.019355
1515639560,-0.27861,-0.224673,-0.757316,-0.95294,-0.290119,-0.023433
1515639560,-0.287637,-0.207122,-0.81175,-1.022866,-0.461686,-0.046542
1515639560,-0.298306,-0.205921,-0.845605,-0.987662,-0.677229,-0.104954
1515639560,-0.299939,-0.224981,-0.865284,-0.850302,-0.961223,-0.206239
1515639560,-0.30083,-0.234885,-0.881606,-0.666833,-1.152435,-0.304997
1515639560,-0.29499,-0.223212,-0.908838,-0.449114,-1.239272,-0.386264
1515639560,-0.265758,-0.200944,-0.928219,-0.181644,-1.387512,-0.466689
1515639560,-0.236144,-0.190346,-0.93473,0.135759,-1.615236,-0.539944
1515639560,-0.204547,-0.175342,-0.935518,0.50188,-1.907573,-0.604908
1515639560,-0.164216,-0.148139,-0.91869,0.899264,-2.22741,-0.656107
1515639560,-0.123952,-0.118093,-0.895234,1.260694,-2.475178,-0.686777
1515639560,-0.08575,-0.112443,-0.857967,1.544701,-2.673394,-0.725816
1515639560,-0.035328,-0.128999,-0.808961,1.725744,-2.83283,-0.776476
1515639560,0.018815,-0.149443,-0.762618,1.820583,-2.917289,-0.809818
1515639560,0.06099,-0.161755,-0.711471,1.880346,-2.908482,-0.788432
1515639560,0.099856,-0.162911,-0.669372,1.919289,-2.84562,-0.741254
1515639560,0.161923,-0.166861,-0.629554,1.945343,-2.885963,-0.70729
1515639560,0.222966,-0.192625,-0.589473,1.933875,-3.022259,-0.659869
1515639560,0.272802,-0.21183,-0.568634,1.866157,-3.195148,-0.562516
1515639560,0.328106,-0.199585,-0.564809,1.748164,-3.360953,-0.433176
1515639560,0.393083,-0.151457,-0.564626,1.603333,-3.512089,-0.271805
1515639560,0.459868,-0.097972,-0.559547,1.419544,-3.612442,-0.095327
1515639560,0.515705,-0.071924,-0.563108,1.185133,-3.56109,0.112648
1515639560,0.553648,-0.069297,-0.580064,0.935466,-3.478978,0.321809
1515639560,0.592287,-0.078976,-0.604001,0.757023,-3.469803,0.513653
1515639560,0.602243,-0.093885,-0.62602,0.679751,-3.535533,0.697783
1515639560,0.603383,-0.077026,-0.65564,0.693016,-3.683552,0.825129
1515639560,0.636311,-0.024462,-0.691405,0.763298,-3.874711,0.886227
1515639560,0.676789,0.030719,-0.731892,0.856134,-3.969981,0.921066
1515639560,0.702488,0.076086,-0.755534,0.982777,-4.027714,0.907035
1515639560,0.73798,0.09356,-0.759719,1.169114,-4.183829,0.815883
1515639560,0.775111,0.103135,-0.746103,1.431024,-4.420305,0.709518
1515639560,0.808704,0.112398,-0.720065,1.74043,-4.704443,0.637098
1515639560,0.861329,0.148258,-0.722447,2.046836,-5.006804,0.622172
1515639560,0.952593,0.243693,-0.757187,2.31287,-5.221226,0.651289
1515639560,1.049187,0.382713,-0.800613,2.557741,-5.235944,0.727038
1515639560,1.137712,0.567176,-0.835714,2.885932,-5.138531,0.80754
1515639560,1.239017,0.786023,-0.833025,3.269982,-4.965151,0.825475
1515639560,1.350436,0.993926,-0.810337,3.604874,-4.798104,0.698377
1515639560,1.462925,1.15254,-0.774244,3.868244,-4.645998,0.411273
1515639560,1.532586,1.189602,-0.681799,4.011457,-4.445619,0.104049
1515639560,1.562044,1.092528,-0.58877,3.973495,-4.179491,-0.108116
1515639560,1.585667,0.959653,-0.51625,3.812876,-3.818723,-0.156851
1515639560,1.583417,0.820969,-0.442485,3.639149,-3.530696,-0.050237
1515639560,1.552165,0.678582,-0.389648,3.442638,-3.090021,0.21689
1515639560,1.517271,0.608131,-0.378035,3.387223,-2.650835,0.559768
1515639560,1.506537,0.55578,-0.319476,3.539538,-2.588864,0.818078
1515639560,1.48933,0.493375,-0.263437,3.734035,-2.581817,1.017555
1515639560,1.456953,0.471229,-0.243572,3.888229,-2.497308,1.191738
1515639560,1.430148,0.471419,-0.222841,3.999118,-2.357632,1.313883
1515639560,1.402572,0.47095,-0.204412,4.103736,-2.234868,1.378394
1515639560,1.359778,0.441284,-0.180685,4.257233,-2.193728,1.445794
1515639560,1.29781,0.394811,-0.154098,4.449974,-2.121596,1.542119
1515639560,1.217628,0.422628,-0.151805,4.667441,-1.84414,1.67233
1515639560,1.1758,0.544308,-0.151767,4.952007,-1.6576,1.729713
1515639560,1.160335,0.667406,-0.128083,5.210337,-1.525186,1.673865
1515639560,1.158499,0.768939,-0.093291,5.366354,-1.42503,1.513364
1515639560,1.144703,0.803889,-0.040822,5.394562,-1.25857,1.337077
1515639560,1.093909,0.777754,0.02944,5.361663,-0.959643,1.211397
1515639561,1.016722,0.725844,0.127123,5.364924,-0.750982,1.121619
1515639561,0.956898,0.677163,0.217731,5.367774,-0.719864,1.008744
1515639561,0.924471,0.677293,0.276791,5.35267,-0.709129,0.925627
1515639561,0.873001,0.686673,0.345895,5.376201,-0.821668,0.904934
1515639561,0.810811,0.673895,0.402499,5.374063,-1.150265,0.892954
1515639561,0.751022,0.670146,0.410359,5.246258,-1.301015,0.922137
1515639561,0.692723,0.763444,0.389353,5.05899,-1.159748,0.995108
1515639561,0.690124,0.896195,0.419656,4.951936,-1.137067,1.038856
1515639561,0.661353,0.930308,0.513145,4.853366,-0.996379,1.122527
1515639561,0.583609,0.906194,0.602841,4.664526,-0.580927,1.275486
1515639561,0.49122,0.897695,0.67645,4.388836,-0.13511,1.418931
1515639561,0.423441,0.876798,0.742135,4.049468,0.041569,1.437603
1515639561,0.371409,0.845705,0.7838,3.586197,0.099691,1.366189
1515639561,0.303859,0.837223,0.809538,3.061518,0.097984,1.258258
1515639561,0.226106,0.822705,0.845252,2.533376,-0.094186,1.189007
1515639561,0.151179,0.802793,0.869744,1.985169,-0.416362,1.188522
1515639561,0.087441,0.768528,0.866734,1.333676,-0.664765,1.219198
1515639561,0.062634,0.752261,0.824345,0.567947,-0.703308,1.270915
1515639561,0.082,0.759466,0.81378,-0.144195,-0.757519,1.33539
1515639561,0.122535,0.75429,0.84942,-0.754227,-0.875898,1.346351
1515639561,0.172832,0.739841,0.865079,-1.305083,-0.819423,1.311135
1515639561,0.219957,0.735069,0.859062,-1.810416,-0.723169,1.202543
1515639561,0.245642,0.738916,0.838256,-2.256922,-0.637027,1.009717
1515639561,0.249418,0.715347,0.810281,-2.65569,-0.517548,0.775472
1515639561,0.249557,0.675045,0.777174,-3.01809,-0.291568,0.564058
1515639561,0.253768,0.632215,0.737415,-3.354207,-0.019799,0.391217
1515639561,0.253158,0.598723,0.684839,-3.651936,0.373261,0.293507
1515639561,0.22805,0.590494,0.645859,-3.788483,0.786221,0.265245
1515639561,0.20672,0.597857,0.630047,-3.744233,1.068334,0.247209
1515639561,0.155559,0.634153,0.612084,-3.597824,1.394608,0.247526
1515639561,0.086393,0.696281,0.585294,-3.398402,1.654143,0.261454
1515639561,0.029381,0.778965,0.563349,-3.2114,1.652084,0.238084
1515639561,-0.047872,0.843826,0.54099,-3.149765,1.463353,0.143542
1515639561,-0.141071,0.899521,0.496379,-3.309566,1.295884,-0.042705
1515639561,-0.211579,0.975062,0.441428,-3.638234,1.130738,-0.270597
1515639561,-0.257555,1.010172,0.40389,-4.131979,0.9104,-0.492392
1515639561,-0.273192,1.019431,0.32959,-4.753608,0.766853,-0.668099
1515639561,-0.261004,1.094093,0.244102,-5.361876,0.679632,-0.79667
1515639561,-0.239751,1.211209,0.177562,-5.928493,0.704314,-0.921571
1515639561,-0.199833,1.313583,0.099433,-6.41449,0.676459,-1.120201
1515639561,-0.114881,1.329104,0.021784,-6.840409,0.509836,-1.412109
1515639561,-0.036431,1.272001,-0.063744,-7.204157,0.430834,-1.732423
1515639561,0.058608,1.212981,-0.152421,-7.48211,0.429932,-2.039587
1515639561,0.180693,1.222062,-0.273095,-7.662033,0.462308,-2.236768
1515639561,0.321656,1.312728,-0.392362,-7.649065,0.445459,-2.27734
1515639561,0.45237,1.326988,-0.371446,-7.498722,0.154709,-2.178223
1515639561,0.528784,1.250268,-0.428742,-7.501587,0.027365,-1.834394
1515639561,0.505604,1.130307,-0.500451,-7.622902,0.110618,-1.331997
1515639561,0.469356,0.996257,-0.568132,-7.770221,0.340453,-0.818364
1515639561,0.373144,0.966704,-0.654179,-7.816546,0.7305,-0.349878
1515639561,0.262239,0.925561,-0.708258,-7.684953,0.947506,-0.04085
1515639561,0.148014,0.85353,-0.761195,-7.358247,0.8704,0.079458
1515639561,0.002258,0.829059,-0.814013,-6.861179,0.630769,0.084064
1515639561,-0.156383,0.803161,-0.85882,-6.262617,0.279179,0.005114
1515639561,-0.28463,0.766776,-0.905148,-5.662958,-0.075582,-0.079177
1515639561,-0.388799,0.748849,-0.945683,-5.100162,-0.374256,-0.133411
1515639561,-0.416316,0.685147,-0.941588,-4.654316,-0.734162,-0.213532
1515639561,-0.409039,0.546329,-0.949082,-4.384033,-0.95251,-0.317686
1515639561,-0.398567,0.394383,-0.951651,-4.180014,-0.949048,-0.391135
1515639561,-0.373257,0.281905,-0.952618,-3.934723,-0.904938,-0.466534
1515639561,-0.312102,0.259443,-0.970154,-3.548696,-0.829171,-0.543869
1515639561,-0.249092,0.297578,-0.955486,-3.077615,-0.710332,-0.639113
1515639561,-0.171024,0.292594,-0.936375,-2.650513,-0.575731,-0.764167
1515639561,-0.096588,0.260351,-0.932109,-2.301136,-0.469231,-0.885104
1515639561,-0.038178,0.230539,-0.939017,-2.0594,-0.278442,-0.932197
1515639561,0.000765,0.213309,-0.951601,-1.904463,0.051986,-0.876432
1515639561,0.040902,0.189095,-0.94096,-1.785418,0.450148,-0.761775
1515639561,0.064733,0.1052,-0.919691,-1.740663,0.796819,-0.63883
1515639561,0.0632,-0.000614,-0.932995,-1.744303,1.066617,-0.504491
1515639561,0.050405,-0.065612,-0.9603,-1.714284,1.283359,-0.336233
1515639561,0.008157,-0.082485,-0.990841,-1.602875,1.372909,-0.149258
1515639561,-0.035307,-0.055741,-1.027521,-1.367405,1.230364,-0.002599
1515639561,-0.072105,-0.012306,-1.050777,-1.09662,0.970094,0.0903
1515639561,-0.113087,0.004518,-1.070451,-0.876633,0.766011,0.127962
1515639561,-0.155269,-0.005388,-1.074955,-0.757559,0.606224,0.077272
1515639561,-0.16829,-0.032238,-1.084618,-0.718103,0.386729,-0.105887
1515639561,-0.167997,-0.047888,-1.100881,-0.697892,0.165139,-0.354095
1515639561,-0.167444,-0.055033,-1.102641,-0.615928,-0.032747,-0.581923
1515639561,-0.157829,-0.065772,-1.095205,-0.460184,-0.2325,-0.737231
1515639561,-0.132585,-0.075971,-1.087542,-0.243298,-0.453303,-0.831826
1515639561,-0.094612,-0.097365,-1.070981,-0.021924,-0.694378,-0.888124
1515639561,-0.054116,-0.133945,-1.060274,0.147159,-0.941125,-0.922083
1515639561,-0.023214,-0.163829,-1.063179,0.274396,-1.166979,-0.893079
1515639561,0.007614,-0.176342,-1.07269,0.425506,-1.426878,-0.795969
1515639561,0.045598,-0.173316,-1.069945,0.645617,-1.747127,-0.643635
1515639561,0.086651,-0.160062,-1.057692,0.876036,-2.026987,-0.454888
1515639561,0.115236,-0.142707,-1.041017,1.086568,-2.24098,-0.28614
1515639561,0.15818,-0.12895,-1.021902,1.273496,-2.450606,-0.229325
1515639561,0.200126,-0.105622,-0.982666,1.464436,-2.637672,-0.261967
1515639561,0.206021,-0.108404,-0.924009,1.618533,-2.661222,-0.268381
1515639561,0.171401,-0.121294,-0.893791,1.699389,-2.512044,-0.192053
1515639561,0.162567,-0.125373,-0.86709,1.745298,-2.504517,-0.113112
1515639561,0.183293,-0.136718,-0.856236,1.71686,-2.652659,-0.043359
1515639561,0.196583,-0.143659,-0.882141,1.613916,-2.829988,0.042229
1515639561,0.197688,-0.149766,-0.907488,1.54019,-3.042349,0.178865
1515639561,0.202179,-0.14627,-0.909732,1.541736,-3.301161,0.356929
1515639561,0.248222,-0.104692,-0.928693,1.629318,-3.61894,0.492153
1515639561,0.313802,-0.00872,-0.942021,1.813677,-4.003999,0.526943
1515639561,0.403901,0.129312,-0.95581,2.008088,-4.329223,0.461767
1515639562,0.47816,0.228884,-0.95813,2.154142,-4.409009,0.371965
1515639562,0.519714,0.222952,-0.912088,2.257058,-4.337036,0.313669
1515639562,0.560702,0.151171,-0.879082,2.298251,-4.287895,0.318148
1515639562,0.586439,0.097275,-0.87227,2.305915,-4.192373,0.421944
1515639562,0.575867,0.067676,-0.847969,2.304698,-4.054706,0.682621
1515639562,0.556621,0.076069,-0.835542,2.404175,-3.937985,1.051997
1515639562,0.557674,0.169495,-0.841559,2.640967,-3.879908,1.364701
1515639562,0.567336,0.302825,-0.833904,2.970475,-3.914488,1.503308
1515639562,0.597523,0.4182,-0.85043,3.309445,-4.053774,1.410163
1515639562,0.649726,0.574072,-0.847284,3.694664,-4.122265,1.164875
1515639562,0.674837,0.764577,-0.769526,4.098434,-4.01302,0.898982
1515639562,0.700568,0.951596,-0.725348,4.573933,-3.806638,0.662301
1515639562,0.742931,1.111257,-0.67848,5.005795,-3.615478,0.46712
1515639562,0.773572,1.183972,-0.643194,5.352051,-3.520566,0.287499
1515639562,0.818811,1.204135,-0.598598,5.568847,-3.407309,0.131344
1515639562,0.853683,1.207231,-0.542667,5.62527,-3.171747,0.037435
1515639562,0.862312,1.180536,-0.49307,5.507235,-2.790704,0.070893
1515639562,0.882445,1.180495,-0.472909,5.411674,-2.519251,0.180676
1515639562,0.912169,1.189423,-0.410247,5.391366,-2.402695,0.317591
1515639562,0.894769,1.126082,-0.33853,5.334916,-2.192893,0.513497
1515639562,0.83738,1.01424,-0.285131,5.243703,-2.035346,0.684657
1515639562,0.808322,0.914548,-0.269056,5.020391,-1.925044,0.721239
1515639562,0.773878,0.860658,-0.254194,4.7009,-1.706695,0.703841
1515639562,0.714925,0.780631,-0.195123,4.309789,-1.59713,0.640131
1515639562,0.683452,0.751625,-0.158544,4.025331,-1.578318,0.536663
1515639562,0.677791,0.809189,-0.058993,3.944986,-1.56258,0.426883
1515639562,0.679895,0.866478,0.042908,3.977942,-1.658985,0.343356
1515639562,0.639417,0.847389,0.122589,4.023929,-1.772514,0.343988
1515639562,0.578264,0.791072,0.202468,4.143223,-1.841043,0.383215
1515639562,0.553512,0.757703,0.2976,4.226058,-2.00957,0.343133
1515639562,0.56914,0.736078,0.326495,4.145466,-2.18533,0.2699
1515639562,0.571925,0.701509,0.342842,3.894428,-2.302622,0.240527
1515639562,0.577315,0.697492,0.36824,3.575683,-2.387057,0.080119
1515639562,0.590228,0.743635,0.408594,3.295394,-2.355559,0.019346
1515639562,0.624251,0.55833,0.447005,3.098311,-2.411151,0.121374
1515639562,0.603452,0.418132,0.480959,2.904212,-2.337908,0.159954
1515639562,0.592342,0.408285,0.517301,2.799906,-2.164978,0.07851
1515639562,0.617921,0.390514,0.572322,2.799394,-2.117944,-0.030041
1515639562,0.62641,0.318918,0.620565,2.754278,-1.988264,-0.115893
1515639562,0.601923,0.240961,0.658053,2.586022,-1.72315,-0.20979
1515639562,0.57152,0.175188,0.696229,2.284366,-1.366239,-0.321505
1515639562,0.553824,0.146118,0.725388,1.992256,-0.999812,-0.384138
1515639562,0.551803,0.153842,0.770108,1.798625,-0.758398,-0.404581
1515639562,0.548071,0.178234,0.817717,1.671595,-0.657241,-0.312553
1515639562,0.514194,0.202248,0.860946,1.603933,-0.71986,-0.072974
1515639562,0.518737,0.226552,0.882456,1.544232,-0.935796,0.270473
1515639562,0.529814,0.250385,0.89129,1.45961,-1.223224,0.660531
1515639562,0.539461,0.273262,0.88938,1.291644,-1.290035,1.094075
1515639562,0.563246,0.340048,0.903207,1.079371,-1.200609,1.451463
1515639562,0.592103,0.364715,0.95511,0.783544,-1.095421,1.685214
1515639562,0.565883,0.335282,0.98748,0.397797,-0.759741,1.815373
1515639562,0.542786,0.329046,1.034588,0.034743,-0.35012,1.752879
1515639562,0.543354,0.361884,1.008802,-0.481838,0.016469,1.520635
1515639562,0.522487,0.422219,0.92686,-1.033693,0.492445,1.263227
1515639562,0.480814,0.48704,0.895109,-1.51562,1.029454,1.003968
1515639562,0.464839,0.504325,0.886545,-1.874343,1.423595,0.743125
1515639562,0.413248,0.473793,0.868625,-2.161755,1.739318,0.536367
1515639562,0.37549,0.483561,0.816324,-2.374318,1.942653,0.372907
1515639562,0.351604,0.519001,0.752456,-2.534291,2.01436,0.237728
1515639562,0.340125,0.571733,0.672806,-2.656085,2.006496,0.113974
1515639562,0.336078,0.646508,0.605173,-2.789504,1.985777,-0.000244
1515639562,0.33187,0.707331,0.552685,-2.948907,2.00001,-0.115398
1515639562,0.322961,0.763016,0.501239,-3.171891,2.070217,-0.215431
1515639562,0.303877,0.838022,0.413028,-3.502846,2.147164,-0.281376
1515639562,0.29458,0.904262,0.301994,-3.921888,2.160903,-0.372142
1515639562,0.280349,0.93495,0.184125,-4.41508,2.21887,-0.451033
1515639562,0.254578,0.959172,0.054825,-4.932738,2.26708,-0.505453
1515639562,0.23461,0.981363,-0.057116,-5.387249,2.303966,-0.569485
1515639562,0.22621,0.996272,-0.131619,-5.742152,2.425463,-0.643791
1515639562,0.188389,1.055415,-0.215379,-6.002953,2.652614,-0.64407
1515639562,0.149475,1.069726,-0.288181,-6.142668,2.843328,-0.678547
1515639562,0.147006,1.013506,-0.338915,-6.132505,2.890472,-0.808414
1515639562,0.143867,0.913889,-0.375461,-5.950791,2.873857,-1.002424
1515639562,0.165331,0.840756,-0.395554,-5.56285,2.634248,-1.28571
1515639562,0.246927,0.877657,-0.439411,-5.133735,2.228883,-1.528064
1515639562,0.327918,1.00157,-0.561564,-4.909832,1.731413,-1.534218
1515639562,0.401439,1.087668,-0.724927,-4.97456,1.150874,-1.277522
1515639562,0.413216,1.040404,-0.820886,-5.244853,0.623915,-0.780843
1515639562,0.355059,0.878169,-0.836846,-5.592451,0.138882,-0.207273
1515639562,0.291339,0.724124,-0.819727,-5.850351,-0.231811,0.349739
1515639562,0.191075,0.62602,-0.774746,-5.942921,-0.355806,0.868376
1515639562,0.097286,0.529912,-0.724533,-5.828204,-0.267719,1.240843
1515639562,0.023061,0.454009,-0.685774,-5.517622,-0.007754,1.342241
1515639562,-0.044172,0.398422,-0.649236,-5.021689,0.408057,1.19063
1515639562,-0.124189,0.344656,-0.614796,-4.399929,0.951533,0.867956
1515639562,-0.175124,0.299693,-0.589575,-3.681402,1.425721,0.389401
1515639562,-0.186478,0.250062,-0.557421,-2.966025,1.77893,-0.211173
1515639562,-0.183509,0.182878,-0.582677,-2.383079,2.016501,-0.801613
1515639562,-0.153734,0.103351,-0.629855,-1.930464,2.146724,-1.28381
1515639562,-0.117998,0.014125,-0.639377,-1.596524,2.181336,-1.636382
1515639562,-0.081052,-0.075604,-0.649878,-1.329283,2.158922,-1.863418
1515639562,-0.046539,-0.141454,-0.649987,-1.10868,2.105067,-1.943485
1515639562,-0.035698,-0.206773,-0.656378,-0.923067,2.032545,-1.845604
1515639562,-0.011994,-0.244469,-0.656484,-0.749662,1.904292,-1.593377
1515639562,0.034506,-0.225752,-0.660493,-0.585302,1.720531,-1.275282
1515639562,0.124413,-0.216414,-0.656959,-0.445485,1.533455,-0.961475
1515639562,0.176303,-0.245769,-0.616874,-0.369533,1.538559,-0.673579
1515639562,0.192416,-0.293181,-0.595938,-0.371709,1.663505,-0.437477
1515639562,0.193891,-0.325855,-0.603598,-0.409688,1.83948,-0.28754
1515639563,0.189001,-0.307002,-0.609402,-0.437181,2.031672,-0.226016
1515639563,0.159631,-0.285307,-0.609645,-0.439123,2.230537,-0.22735
1515639563,0.119588,-0.282884,-0.628867,-0.4348,2.441271,-0.290467
1515639563,0.089724,-0.278327,-0.659844,-0.465649,2.530707,-0.412719
1515639563,0.058986,-0.283823,-0.698405,-0.539049,2.490194,-0.554704
1515639563,0.023329,-0.308939,-0.732397,-0.68326,2.373588,-0.61814
1515639563,-0.032544,-0.326325,-0.792664,-0.93719,2.228428,-0.558077
1515639563,-0.081592,-0.321295,-0.88773,-1.253283,1.891161,-0.351695
1515639563,-0.130711,-0.33201,-0.972658,-1.572092,1.287871,-0.084551
1515639563,-0.154439,-0.36012,-1.038616,-1.831371,0.713743,0.134766
1515639563,-0.170433,-0.362309,-1.071313,-1.99778,0.255147,0.290626
1515639563,-0.202297,-0.33833,-1.128329,-2.060454,-0.215481,0.38572
1515639563,-0.197382,-0.292396,-1.210706,-1.937543,-0.657135,0.365883
1515639563,-0.192513,-0.20622,-1.238403,-1.560734,-0.953486,0.223087
1515639563,-0.174668,-0.151142,-1.231984,-1.068079,-1.081972,-0.025589
1515639563,-0.146539,-0.134914,-1.260873,-0.561282,-1.128425,-0.305914
1515639563,-0.134132,-0.172915,-1.26776,-0.047094,-1.164261,-0.556341
1515639563,-0.112476,-0.224909,-1.263085,0.398661,-1.187015,-0.646833
1515639563,-0.093949,-0.220068,-1.282388,0.85258,-1.270781,-0.545676
1515639563,-0.051477,-0.191493,-1.291089,1.311543,-1.535642,-0.29706
1515639563,-0.009515,-0.168755,-1.291985,1.69538,-1.87032,0.068509
1515639563,0.051233,-0.164191,-1.29599,1.992126,-2.148152,0.46731
1515639563,0.112396,-0.108913,-1.283013,2.263419,-2.22723,0.855173
1515639563,0.153626,-0.0305,-1.229697,2.541408,-2.118982,1.192619
1515639563,0.188784,0.020612,-1.177427,2.839236,-1.967883,1.440696
1515639563,0.207687,0.070582,-1.138853,3.181584,-1.786456,1.558856
1515639563,0.220436,0.150989,-1.111873,3.555915,-1.60453,1.535244
1515639563,0.224734,0.244432,-1.104167,3.938133,-1.358595,1.440464
1515639563,0.210072,0.299907,-1.072649,4.341029,-1.150828,1.348741
1515639563,0.192905,0.318474,-1.026739,4.763347,-1.0696,1.301296
1515639563,0.18934,0.333057,-0.983437,5.19523,-1.089488,1.31528
1515639563,0.198395,0.394018,-0.945081,5.637556,-1.191317,1.38118
1515639563,0.223606,0.527349,-0.933451,6.079923,-1.407955,1.425296
1515639563,0.273036,0.716445,-0.942627,6.456422,-1.667346,1.393515
1515639563,0.328976,0.942635,-0.964108,6.673451,-1.794526,1.280105
1515639563,0.401385,1.203142,-0.990655,6.791551,-1.75092,1.109766
1515639563,0.478891,1.411233,-0.936083,6.879469,-1.571362,0.935693
1515639563,0.525817,1.545601,-0.834415,6.953175,-1.24532,0.847485
1515639563,0.548623,1.612014,-0.707529,6.984197,-0.923831,0.783759
1515639563,0.584145,1.609188,-0.590253,6.88582,-0.701944,0.698248
1515639563,0.581506,1.55288,-0.49522,6.668791,-0.47337,0.650023
1515639563,0.558773,1.487012,-0.401008,6.381328,-0.361172,0.632218
1515639563,0.545628,1.408877,-0.334962,6.032583,-0.429096,0.627516
1515639563,0.545969,1.332707,-0.298536,5.686032,-0.611911,0.637272
1515639563,0.529294,1.263585,-0.253703,5.393754,-0.769001,0.7026
1515639563,0.485811,1.187636,-0.1968,5.130837,-0.866463,0.812957
1515639563,0.477788,1.114732,-0.149905,4.912381,-1.031702,0.907071
1515639563,0.463498,1.057154,-0.10311,4.708024,-0.996032,1.074489
1515639563,0.455377,1.068147,-0.049064,4.614402,-0.919354,1.260249
1515639563,0.476195,1.069651,0.045972,4.569805,-1.051716,1.369506
1515639563,0.469446,1.017083,0.127854,4.426833,-1.181276,1.396636
1515639563,0.431843,0.949228,0.188827,4.16655,-1.227391,1.37287
1515639563,0.393241,0.890154,0.245954,3.908416,-1.276573,1.304321
1515639563,0.372532,0.8379,0.307209,3.733241,-1.397503,1.196081
1515639563,0.361652,0.793452,0.368342,3.650449,-1.569961,1.063156
1515639563,0.356511,0.748958,0.4204,3.631927,-1.75903,0.918472
1515639563,0.350706,0.733253,0.449195,3.600811,-1.639941,0.847508
1515639563,0.385995,0.808245,0.460019,3.63222,-1.356801,0.811345
1515639563,0.446843,0.876046,0.549888,3.710366,-1.155244,0.761019
1515639563,0.465426,0.830616,0.673605,3.721377,-0.972153,0.71272
1515639563,0.451163,0.735355,0.781357,3.638058,-0.757733,0.67836
1515639563,0.413559,0.644656,0.88148,3.459499,-0.527947,0.661073
1515639563,0.377019,0.581134,0.948774,3.184575,-0.388009,0.628456
1515639563,0.350133,0.54319,0.986532,2.816131,-0.30069,0.584922
1515639563,0.316356,0.501487,1.000994,2.357198,-0.247916,0.538009
1515639563,0.269459,0.461865,0.988991,1.880988,-0.285654,0.499252
1515639563,0.225185,0.438844,0.967917,1.4404,-0.468915,0.474854
1515639563,0.180055,0.441114,0.937278,1.024024,-0.723318,0.467242
1515639563,0.128697,0.473207,0.882868,0.540932,-0.706105,0.566226
1515639563,0.120132,0.542709,0.809014,0.063387,-0.599596,0.68902
1515639563,0.166024,0.596614,0.771992,-0.336724,-0.655254,0.773892
1515639563,0.195099,0.602673,0.773363,-0.662689,-0.756106,0.809579
1515639563,0.203334,0.568772,0.78595,-0.97385,-0.732412,0.829782
1515639563,0.197164,0.519488,0.795859,-1.271606,-0.550126,0.830377
1515639563,0.205205,0.497723,0.80265,-1.555747,-0.343173,0.767108
1515639563,0.209856,0.497935,0.79041,-1.819927,-0.104116,0.658129
1515639563,0.207633,0.51372,0.765258,-2.070613,0.174461,0.515208
1515639563,0.20467,0.550944,0.724962,-2.295373,0.424471,0.375384
1515639563,0.186335,0.604848,0.691028,-2.421165,0.606953,0.248128
1515639563,0.177645,0.647256,0.684645,-2.466103,0.716505,0.125947
1515639563,0.161147,0.656702,0.673652,-2.499971,0.787786,0.027072
1515639563,0.132146,0.648699,0.65361,-2.570331,0.876885,-0.048295
1515639563,0.08938,0.653656,0.639492,-2.70322,1.024054,-0.096807
1515639563,0.065245,0.671183,0.606362,-2.892971,1.084781,-0.157421
1515639563,0.057257,0.697882,0.554358,-3.129587,1.018787,-0.261207
1515639563,0.042368,0.724646,0.490581,-3.412243,0.962123,-0.373505
1515639563,0.018565,0.768394,0.410615,-3.749633,0.930626,-0.468672
1515639563,0.011072,0.839376,0.312142,-4.096156,0.849118,-0.574705
1515639563,0.016472,0.91786,0.220685,-4.431316,0.808063,-0.669909
1515639563,0.012199,0.978043,0.138172,-4.736636,0.886204,-0.729442
1515639563,0.016581,1.026245,0.067323,-5.027802,1.04735,-0.775841
1515639563,0.028724,1.043888,-0.004295,-5.29931,1.162985,-0.868254
1515639563,0.041046,1.009126,-0.059861,-5.555233,1.211824,-1.012099
1515639563,0.029942,0.923814,-0.095786,-5.78542,1.360791,-1.159793
1515639563,0.006396,0.841103,-0.137016,-5.988737,1.602447,-1.315633
1515639563,0.010632,0.812588,-0.212248,-6.117978,1.695781,-1.536
1515639563,0.026664,0.829404,-0.302283,-6.02474,1.653361,-1.823966
1515639563,0.059367,0.830321,-0.341317,-5.690303,1.420937,-2.126436
1515639563,0.127749,0.866541,-0.40407,-5.291193,0.91135,-2.444914
1515639564,0.228848,1.023913,-0.539827,-5.084232,0.278135,-2.66377
1515639564,0.358079,1.223797,-0.717695,-5.16578,-0.343393,-2.666302
1515639564,0.495683,1.342398,-0.867308,-5.506514,-0.667273,-2.325551
1515639564,0.561209,1.318084,-0.953365,-5.936937,-0.655238,-1.681799
1515639564,0.540755,1.159657,-0.95314,-6.244452,-0.424644,-0.974219
1515639564,0.485401,0.936173,-0.894587,-6.325064,-0.12968,-0.404857
1515639564,0.421212,0.706469,-0.838969,-6.174189,0.19676,0.0027
1515639564,0.335437,0.513275,-0.795972,-5.836679,0.552236,0.266541
1515639564,0.242546,0.37884,-0.76565,-5.343277,0.911131,0.357768
1515639564,0.166402,0.277554,-0.73214,-4.717912,1.207319,0.292091
1515639564,0.089789,0.158279,-0.687694,-4.052703,1.46675,0.120744
1515639564,0.028934,0.035108,-0.666953,-3.398605,1.65714,-0.115915
1515639564,-0.018214,-0.065291,-0.646604,-2.794564,1.720702,-0.361639
1515639564,-0.056267,-0.152223,-0.632619,-2.263779,1.629529,-0.553646
1515639564,-0.080455,-0.222445,-0.635423,-1.775538,1.414516,-0.636359
1515639564,-0.098485,-0.234359,-0.631948,-1.279799,1.09397,-0.594767
1515639564,-0.073176,-0.192865,-0.617698,-0.842691,0.651745,-0.509985
1515639564,-0.015912,-0.1334,-0.601765,-0.512756,0.243953,-0.399526
1515639564,0.033083,-0.068049,-0.561413,-0.318704,-0.035935,-0.289684
1515639564,0.089934,-0.041489,-0.518815,-0.294001,-0.156065,-0.245379
1515639564,0.145708,-0.052067,-0.486146,-0.472056,0.023674,-0.23195
1515639564,0.189993,-0.060326,-0.458381,-0.791332,0.438758,-0.247493
1515639564,0.230319,-0.088388,-0.430898,-1.178473,0.90779,-0.307628
1515639564,0.25064,-0.149025,-0.425841,-1.604411,1.410633,-0.368712
1515639564,0.242538,-0.210754,-0.458012,-1.991346,1.859414,-0.40974
1515639564,0.219353,-0.252108,-0.510826,-2.238957,2.157912,-0.418255
1515639564,0.171617,-0.269853,-0.569948,-2.359876,2.286873,-0.381551
1515639564,0.126375,-0.273637,-0.644505,-2.388157,2.232304,-0.306092
1515639564,0.092299,-0.277792,-0.705948,-2.357084,2.011029,-0.187559
1515639564,0.06155,-0.287688,-0.757867,-2.327327,1.706711,-0.03845
1515639564,0.020021,-0.307641,-0.813998,-2.320932,1.387375,0.108456
1515639564,-0.021316,-0.325518,-0.866426,-2.333025,1.100911,0.251221
1515639564,-0.050973,-0.329881,-0.916542,-2.316145,0.800829,0.373688
1515639564,-0.079109,-0.329033,-0.955096,-2.248451,0.439393,0.482075
1515639564,-0.115043,-0.332384,-0.986436,-2.129865,0.118687,0.585325
1515639564,-0.134442,-0.333938,-1.017124,-2.006967,-0.096734,0.692193
1515639564,-0.143061,-0.317491,-1.057277,-1.868901,-0.226885,0.748234
1515639564,-0.150667,-0.299475,-1.088542,-1.690637,-0.318367,0.74049
1515639564,-0.162985,-0.298698,-1.10436,-1.440236,-0.358314,0.696737
1515639564,-0.17633,-0.307124,-1.115114,-1.109136,-0.346711,0.637241
1515639564,-0.187459,-0.310853,-1.114109,-0.697821,-0.34312,0.568161
1515639564,-0.196207,-0.305574,-1.111874,-0.264281,-0.317117,0.514102
1515639564,-0.210869,-0.287886,-1.122449,0.143655,-0.294509,0.482401
1515639564,-0.212556,-0.264673,-1.126676,0.485161,-0.361642,0.467369
1515639564,-0.199999,-0.256007,-1.124449,0.706346,-0.469931,0.483037
1515639564,-0.201629,-0.271559,-1.114119,0.856875,-0.561776,0.565893
1515639564,-0.206217,-0.268659,-1.107207,0.975096,-0.73579,0.68358
1515639564,-0.200023,-0.234228,-1.126122,1.085817,-1.017219,0.792309
1515639564,-0.197052,-0.17289,-1.159896,1.195446,-1.295487,0.912778
1515639564,-0.191095,-0.083103,-1.199021,1.31145,-1.570515,1.0258
1515639564,-0.168441,0.013076,-1.229633,1.430441,-1.824215,1.119718
1515639564,-0.145198,0.107126,-1.263369,1.558041,-1.975721,1.191664
1515639564,-0.129172,0.212879,-1.285687,1.713758,-2.054643,1.214875
1515639564,-0.104926,0.313883,-1.293435,1.870903,-2.175836,1.123847
1515639564,-0.067351,0.402101,-1.310949,2.038762,-2.304221,0.948576
1515639564,-0.038571,0.484846,-1.322448,2.267737,-2.346052,0.744897
1515639564,0.001586,0.574516,-1.336072,2.558158,-2.334327,0.529737
1515639564,0.057851,0.652071,-1.325998,2.939727,-2.355084,0.329414
1515639564,0.122182,0.70198,-1.294726,3.40662,-2.35638,0.201699
1515639564,0.180004,0.749198,-1.257837,3.956577,-2.324425,0.162644
1515639564,0.241331,0.821986,-1.221223,4.568338,-2.27306,0.163142
1515639564,0.311433,0.929223,-1.187137,5.238655,-2.20009,0.162688
1515639564,0.373348,1.056823,-1.132087,5.994294,-2.110662,0.158078
1515639564,0.426143,1.214197,-1.06501,6.763299,-1.967987,0.151553
1515639564,0.513542,1.437571,-1.016182,7.477099,-1.866899,0.048885
1515639564,0.649495,1.718431,-0.954619,8.062094,-1.821547,-0.183058
1515639564,0.792392,1.962525,-0.870945,8.53083,-1.798081,-0.431132
1515639564,0.890885,2.096396,-0.740324,8.904327,-1.754196,-0.550178
1515639564,0.946079,2.084371,-0.57549,9.083434,-1.7138,-0.563793
1515639564,0.995444,1.972661,-0.427055,9.031311,-1.62696,-0.534686
1515639564,1.017466,1.861405,-0.2752,8.851106,-1.553639,-0.491832
1515639564,0.983515,1.752163,-0.111682,8.537731,-1.409917,-0.413581
1515639564,0.864625,1.632093,-0.012252,7.944571,-0.61843,-0.155899
1515639564,0.727392,1.590628,0.011348,7.246755,0.391296,0.209219
1515639564,0.655075,1.566995,0.080452,6.67231,0.799992,0.494162
1515639564,0.59528,1.494051,0.171504,6.187607,0.769081,0.708088
1515639564,0.500944,1.411285,0.245808,5.787431,0.615356,0.89171
1515639564,0.404511,1.35295,0.320196,5.468076,0.388866,1.01005
1515639564,0.337165,1.305654,0.383544,5.244317,0.106783,1.031201
1515639564,0.283935,1.248767,0.459928,5.13187,-0.197906,0.983018
1515639564,0.238816,1.156754,0.547381,5.078815,-0.569126,0.879161
1515639564,0.214164,1.063914,0.614471,5.008267,-1.0126,0.702512
1515639564,0.205263,0.99727,0.654746,4.920611,-1.457126,0.478945
1515639564,0.19427,0.934615,0.69596,4.811178,-1.748736,0.297557
1515639564,0.184949,0.888457,0.727253,4.667346,-1.906687,0.17852
1515639564,0.201324,0.858733,0.742227,4.51631,-2.091342,0.093488
1515639564,0.233062,0.821013,0.763594,4.367579,-2.290953,0.047844
1515639564,0.256445,0.780387,0.784,4.1585,-2.213633,0.126944
1515639564,0.275887,0.775354,0.792756,3.926633,-1.987736,0.281252
1515639564,0.330076,0.792605,0.807216,3.676147,-1.823653,0.451297
1515639564,0.380572,0.800753,0.832206,3.396338,-1.61493,0.552207
1515639564,0.414067,0.829083,0.858827,3.028715,-1.388502,0.600914
1515639564,0.413824,0.8181,0.852751,2.577985,-1.185928,0.648425
1515639564,0.405054,0.79492,0.855144,2.108078,-0.989851,0.691631
1515639564,0.373809,0.77058,0.875836,1.620979,-0.78429,0.72847
1515639564,0.346924,0.750324,0.883255,1.112083,-0.646805,0.717052
1515639564,0.333281,0.737002,0.875736,0.588017,-0.598653,0.670091
1515639564,0.31166,0.739247,0.867144,0.066627,-0.604777,0.645298
1515639564,0.288955,0.742404,0.854055,-0.451535,-0.614041,0.604503
1515639565,0.2733,0.742979,0.826715,-1.008731,-0.45449,0.588887
1515639565,0.233565,0.763961,0.781328,-1.568686,-0.121642,0.584623
1515639565,0.255108,0.814135,0.74653,-2.040823,-0.033672,0.458955
1515639565,0.290129,0.825205,0.738086,-2.384677,-0.063905,0.266784
1515639565,0.2935,0.79427,0.749531,-2.680442,0.013551,0.0644
1515639565,0.298041,0.77165,0.742618,-2.938046,0.231572,-0.131011
1515639565,0.30591,0.759711,0.729271,-3.132689,0.459494,-0.305025
1515639565,0.306489,0.750699,0.708187,-3.294231,0.692794,-0.4193
1515639565,0.288741,0.754262,0.671044,-3.402725,0.858199,-0.47519
1515639565,0.26303,0.76915,0.631302,-3.508601,0.977728,-0.459836
1515639565,0.213603,0.805315,0.576931,-3.680485,1.078534,-0.326255
1515639565,0.174689,0.88699,0.501459,-3.913522,1.097048,-0.163178
1515639565,0.167601,0.979476,0.425008,-4.277099,1.025417,0.023991
1515639565,0.147189,1.061715,0.324173,-4.804075,0.945401,0.213181
1515639565,0.125788,1.136353,0.225364,-5.417809,0.774615,0.347595
1515639565,0.107784,1.168562,0.154381,-6.065734,0.602586,0.469191
1515639565,0.075052,1.191559,0.086649,-6.726892,0.581541,0.575399
1515639565,0.03493,1.233808,0.009346,-7.349195,0.62375,0.551818
1515639565,0.007018,1.265176,-0.054219,-7.870661,0.840083,0.441566
1515639565,-0.039182,1.263046,-0.107797,-8.277617,1.143418,0.24537
1515639565,-0.062046,1.238566,-0.189981,-8.600288,1.342317,-0.117516
1515639565,-0.063066,1.182764,-0.281594,-8.841824,1.542976,-0.586967
1515639565,-0.046306,1.156822,-0.393526,-8.89077,1.71408,-1.133199
1515639565,-0.01152,1.218547,-0.478697,-8.622868,1.936965,-1.669478
1515639565,0.064738,1.29699,-0.535449,-8.14932,1.891922,-2.185412
1515639565,0.229798,1.36641,-0.642522,-7.664569,1.362762,-2.56896
1515639565,0.39503,1.411527,-0.766334,-7.291914,0.620602,-2.627196
1515639565,0.497588,1.405986,-0.854904,-7.137283,0.017507,-2.182856
1515639565,0.546028,1.355728,-0.934824,-7.144689,-0.497987,-1.385372
1515639565,0.570456,1.271301,-0.963806,-7.167429,-0.969167,-0.469384
1515639565,0.548303,1.159594,-0.920567,-7.129959,-1.151749,0.422204
1515639565,0.465837,0.991279,-0.828146,-6.9795,-1.095124,1.159157
1515639565,0.372417,0.825961,-0.768809,-6.757782,-0.800258,1.597535
1515639565,0.285808,0.738239,-0.743301,-6.441784,-0.326596,1.743505
1515639565,0.191158,0.647442,-0.709078,-5.99119,0.251408,1.706593
1515639565,0.083604,0.54635,-0.668418,-5.448317,0.781429,1.492568
1515639565,0.007234,0.490468,-0.646116,-4.776435,1.225226,1.167384
1515639565,-0.02846,0.480218,-0.624089,-4.047014,1.571705,0.754416
1515639565,-0.021587,0.488216,-0.623954,-3.408082,1.885692,0.375391
1515639565,-0.025671,0.443378,-0.622304,-2.913596,2.113619,0.064181
1515639565,-0.023881,0.376566,-0.637262,-2.54079,2.224661,-0.127089
1515639565,-0.034102,0.314363,-0.635371,-2.231506,2.173336,-0.163397
1515639565,-0.031738,0.285944,-0.657176,-2.017688,2.056333,-0.081677
1515639565,0.015543,0.295866,-0.681515,-1.842397,1.944504,-0.027667
1515639565,0.096501,0.308418,-0.665121,-1.775038,1.938581,-0.059641
1515639565,0.147664,0.270569,-0.673103,-1.856828,2.104153,-0.125115
1515639565,0.180216,0.204469,-0.688025,-1.9997,2.39702,-0.199699
1515639565,0.218836,0.133484,-0.688506,-2.124452,2.695264,-0.255064
1515639565,0.240655,0.049538,-0.694667,-2.24767,2.949742,-0.233846
1515639565,0.230223,-0.02173,-0.725446,-2.336464,3.07553,-0.12038
1515639565,0.202988,-0.077477,-0.758257,-2.390278,3.014221,0.04992
1515639565,0.166171,-0.092753,-0.808871,-2.423448,2.807382,0.198324
1515639565,0.116075,-0.085427,-0.855523,-2.434437,2.516702,0.327214
1515639565,0.054523,-0.101535,-0.885483,-2.37086,2.140312,0.456863
1515639565,0.004059,-0.124394,-0.905686,-2.28807,1.767159,0.612118
1515639565,-0.054824,-0.118757,-0.944822,-2.223551,1.405565,0.782335
1515639565,-0.111888,-0.0912,-0.990633,-2.193062,1.024752,0.900222
1515639565,-0.149031,-0.064976,-1.048506,-2.235166,0.742607,0.937449
1515639565,-0.196333,-0.036821,-1.126655,-2.330548,0.551751,0.91425
1515639565,-0.250327,-0.005682,-1.201424,-2.37654,0.332626,0.815267
1515639565,-0.295097,0.031868,-1.26993,-2.320431,0.051431,0.680907
1515639565,-0.33206,0.084299,-1.325904,-2.11728,-0.295954,0.562342
1515639565,-0.372111,0.120279,-1.347393,-1.805545,-0.710808,0.456351
1515639565,-0.392599,0.122013,-1.381882,-1.497865,-1.147988,0.342811
1515639565,-0.399983,0.123652,-1.42727,-1.255091,-1.505721,0.197571
1515639565,-0.404263,0.135506,-1.448378,-1.064594,-1.763725,0.023923
1515639565,-0.392089,0.133181,-1.459296,-0.899426,-1.943242,-0.120639
1515639565,-0.37864,0.13808,-1.472989,-0.69323,-2.053567,-0.194546
1515639565,-0.36664,0.148408,-1.473553,-0.411749,-2.100865,-0.1978
1515639565,-0.346742,0.155344,-1.474599,-0.090487,-2.060844,-0.145244
1515639565,-0.323454,0.156067,-1.466541,0.298888,-1.992816,-0.082954
1515639565,-0.295736,0.142289,-1.436752,0.728427,-1.990464,-0.039036
1515639565,-0.275625,0.125305,-1.417606,1.162825,-2.048639,-0.017741
1515639565,-0.259857,0.124911,-1.399365,1.605233,-2.164056,-0.057438
1515639565,-0.22836,0.16934,-1.367548,2.021236,-2.316598,-0.208168
1515639565,-0.198604,0.252517,-1.328269,2.363971,-2.408838,-0.404532
1515639565,-0.182488,0.334734,-1.28331,2.656986,-2.441869,-0.575097
1515639565,-0.167123,0.399946,-1.238567,2.85898,-2.451134,-0.670986
1515639565,-0.156398,0.428566,-1.216027,3.019811,-2.508662,-0.689264
1515639565,-0.142146,0.428391,-1.185812,3.195648,-2.676838,-0.642944
1515639565,-0.1179,0.442455,-1.165771,3.437433,-2.922355,-0.563858
1515639565,-0.070783,0.546884,-1.158768,3.793722,-3.188353,-0.542368
1515639565,0.019495,0.741919,-1.137851,4.21102,-3.469734,-0.618989
1515639565,0.131764,0.963907,-1.13082,4.600956,-3.689395,-0.785995
1515639565,0.26222,1.162072,-1.12257,4.888774,-3.739372,-1.000339
1515639565,0.388538,1.303596,-1.108737,5.135684,-3.648176,-1.200278
1515639565,0.491451,1.385486,-1.051461,5.44424,-3.520595,-1.34354
1515639565,0.589177,1.426141,-0.953917,5.866369,-3.308636,-1.354211
1515639565,0.669227,1.454924,-0.823983,6.366895,-3.132612,-1.269047
1515639565,0.761702,1.515497,-0.721454,6.831313,-2.979148,-1.177597
1515639565,0.86697,1.616807,-0.643207,7.184341,-2.801716,-1.148999
1515639565,0.949705,1.696899,-0.58706,7.351519,-2.522194,-1.120081
1515639565,0.980846,1.740044,-0.557657,7.387272,-2.130826,-1.034274
1515639565,1.01156,1.816525,-0.511999,7.315951,-1.717698,-0.966554
1515639565,1.103611,1.947608,-0.456446,7.185507,-1.494901,-1.062735
1515639565,1.159281,1.978391,-0.309378,6.999759,-1.298997,-1.164381
1515639565,1.121818,1.83211,-0.102226,6.71205,-1.052819,-1.181654
1515639565,1.049884,1.593503,0.064124,6.264337,-0.829073,-1.089286
1515639565,0.972231,1.359422,0.149087,5.718126,-0.690133,-0.897095
1515639566,0.893637,1.189816,0.208548,5.210846,-0.705291,-0.650067
1515639566,0.8218,1.069157,0.267381,4.83641,-0.863358,-0.359841
1515639566,0.759705,1.002244,0.318569,4.626995,-1.067368,-0.027078
1515639566,0.725191,1.003986,0.376871,4.596429,-1.312895,0.307735
1515639566,0.71267,1.01765,0.455477,4.661,-1.566198,0.560475
1515639566,0.713683,1.012973,0.5192,4.689127,-1.706615,0.649476
1515639566,0.730354,1.004199,0.57801,4.650504,-1.804494,0.563775
1515639566,0.737571,0.969275,0.66083,4.533658,-1.884498,0.374703
1515639566,0.758958,0.934652,0.722616,4.268112,-1.951303,0.086471
1515639566,0.778067,0.898485,0.790197,3.954073,-1.865319,-0.171323
1515639566,0.758544,0.786734,0.911911,3.619173,-1.607399,-0.323959
1515639566,0.730866,0.622388,1.0041,3.24775,-1.323412,-0.343251
1515639566,0.698459,0.460806,1.053145,2.88966,-1.085377,-0.231597
1515639566,0.66545,0.332483,1.077586,2.58651,-0.997204,-0.017107
1515639566,0.628312,0.255874,1.069213,2.313444,-0.921797,0.279437
1515639566,0.588013,0.234448,1.065409,2.085359,-0.855767,0.601547
1515639566,0.57328,0.248312,1.052863,1.839052,-0.897112,0.854985
1515639566,0.56293,0.289385,1.004899,1.511244,-1.026748,0.917207
1515639566,0.559837,0.354172,0.952661,1.15471,-1.067889,0.808135
1515639566,0.536016,0.379504,0.966879,0.788,-0.946217,0.625085
1515639566,0.507789,0.341222,0.966597,0.445456,-0.782945,0.442208
1515639566,0.491035,0.280648,0.957993,0.146449,-0.700257,0.269693
1515639566,0.489101,0.23384,0.950613,-0.089904,-0.685329,0.127857
1515639566,0.483486,0.211892,0.949443,-0.311247,-0.671595,0.076636
1515639566,0.46769,0.26393,0.908364,-0.582773,-0.443301,0.014524
1515639566,0.485016,0.398838,0.825804,-0.736903,-0.306996,0.013932
1515639566,0.502592,0.328422,0.796,-0.77313,-0.311733,0.134361
1515639566,0.465082,0.187874,0.801355,-0.856982,-0.250941,0.315797
1515639566,0.440531,0.104183,0.812421,-1.004902,-0.086225,0.469905
1515639566,0.43238,0.093412,0.823697,-1.28124,0.093896,0.535527
1515639566,0.419499,0.138168,0.795512,-1.556358,0.253,0.490192
1515639566,0.388729,0.185371,0.780734,-1.744468,0.583839,0.439192
1515639566,0.370658,0.246849,0.784268,-1.897462,1.038257,0.379108
1515639566,0.385961,0.322389,0.777693,-1.998938,1.358007,0.277999
1515639566,0.374522,0.36991,0.750552,-2.129087,1.660561,0.188539
1515639566,0.347281,0.437402,0.706248,-2.301288,1.892656,0.1073
1515639566,0.307309,0.531936,0.655522,-2.455455,2.03012,0.059802
1515639566,0.25237,0.609117,0.615357,-2.567683,2.034739,0.084286
1515639566,0.177106,0.671397,0.563984,-2.710545,1.898613,0.198813
1515639566,0.103297,0.7399,0.476833,-2.942853,1.620544,0.303128
1515639566,0.06361,0.79831,0.385667,-3.304102,1.305593,0.394436
1515639566,0.027276,0.827637,0.30303,-3.710999,1.07116,0.511636
1515639566,-0.014224,0.848123,0.241408,-4.051599,0.941311,0.634617
1515639566,-0.051977,0.911623,0.172506,-4.314295,0.928986,0.71653
1515639566,-0.077661,0.996051,0.104282,-4.511367,0.865201,0.676736
1515639566,-0.075996,1.044736,0.029307,-4.751501,0.829061,0.529359
1515639566,-0.102793,1.050649,-0.046094,-5.036364,0.885265,0.34715
1515639566,-0.114807,1.026143,-0.114006,-5.345475,0.907328,0.152
1515639566,-0.138752,0.994452,-0.183304,-5.68657,1.03437,0.012694
1515639566,-0.171811,0.94307,-0.247802,-6.00332,1.186972,-0.082791
1515639566,-0.161467,0.901601,-0.313533,-6.225773,1.200898,-0.220363
1515639566,-0.105226,0.938764,-0.374227,-6.272101,1.122316,-0.38914
1515639566,-0.047259,0.996986,-0.385281,-6.166509,0.913845,-0.579688
1515639566,0.065443,1.107802,-0.413893,-5.994225,0.438931,-0.816047
1515639566,0.197183,1.288238,-0.501779,-5.928815,-0.026297,-0.902101
1515639566,0.264735,1.371138,-0.606946,-6.043197,-0.339022,-0.692328
1515639566,0.285005,1.277792,-0.700406,-6.267969,-0.608159,-0.286276
1515639566,0.238161,1.041073,-0.744792,-6.524211,-0.713909,0.213166
1515639566,0.135197,0.801534,-0.768471,-6.733083,-0.530014,0.665821
1515639566,0.029946,0.666695,-0.794079,-6.753778,-0.14487,1.010632
1515639566,-0.116927,0.604302,-0.790864,-6.484962,0.351653,1.272871
1515639566,-0.239242,0.574062,-0.76021,-5.971788,0.873385,1.354098
1515639566,-0.290576,0.571345,-0.761583,-5.315275,1.364707,1.13997
1515639566,-0.327835,0.575486,-0.754314,-4.574772,1.888883,0.71493
1515639566,-0.378363,0.535988,-0.731981,-3.822162,2.371889,0.186323
1515639566,-0.399212,0.453203,-0.744072,-3.175976,2.701168,-0.353614
1515639566,-0.41619,0.36536,-0.794831,-2.666871,2.847591,-0.801605
1515639566,-0.410986,0.289219,-0.855012,-2.238357,2.719907,-1.097215
1515639566,-0.392037,0.223623,-0.896254,-1.858304,2.420353,-1.226164
1515639566,-0.365449,0.152524,-0.923754,-1.549358,1.967009,-1.248091
1515639566,-0.312667,0.093165,-0.952633,-1.262051,1.434726,-1.214908
1515639566,-0.252733,0.057064,-0.934983,-0.995484,0.949024,-1.14317
1515639566,-0.173878,0.028829,-0.917297,-0.805086,0.602276,-1.102892
1515639566,-0.099494,0.03968,-0.90094,-0.68534,0.485962,-1.094773
1515639566,-0.052019,0.043092,-0.856807,-0.60683,0.544831,-1.063584
1515639566,-0.031071,0.008095,-0.821507,-0.560565,0.624711,-0.999278
1515639566,-0.036219,-0.050227,-0.814844,-0.569261,0.645685,-0.885124
1515639566,-0.068612,-0.089183,-0.852135,-0.615089,0.641853,-0.716721
1515639566,-0.103863,-0.099598,-0.87952,-0.61618,0.541542,-0.572143
1515639566,-0.133009,-0.130832,-0.884137,-0.57363,0.345939,-0.497216
1515639566,-0.154277,-0.159971,-0.909626,-0.511652,0.127201,-0.48847
1515639566,-0.170253,-0.143776,-0.930377,-0.414472,-0.088028,-0.53193
1515639566,-0.183605,-0.118294,-0.940714,-0.291745,-0.294557,-0.598799
1515639566,-0.179153,-0.098101,-0.949728,-0.159099,-0.533896,-0.707369
1515639566,-0.15584,-0.088306,-0.959793,-0.070532,-0.746842,-0.84144
1515639566,-0.138789,-0.098111,-0.978864,-0.021048,-0.894197,-0.923029
1515639566,-0.130328,-0.131233,-0.988197,0.028483,-1.043816,-0.947062
1515639566,-0.112941,-0.164691,-0.99612,0.094493,-1.238061,-0.943546
1515639566,-0.081754,-0.172118,-1.016137,0.198163,-1.457635,-0.921983
1515639566,-0.052833,-0.167349,-1.021404,0.334813,-1.662185,-0.88436
1515639566,-0.021717,-0.156741,-1.029066,0.503361,-1.850631,-0.839199
1515639566,0.020168,-0.124613,-1.019832,0.745009,-2.08435,-0.804842
1515639566,0.053115,-0.0915,-0.993727,1.034638,-2.307164,-0.765085
1515639566,0.074665,-0.070901,-0.964564,1.324725,-2.468272,-0.737875
1515639566,0.10942,-0.044219,-0.93874,1.581331,-2.594409,-0.742524
1515639566,0.144994,-0.015304,-0.909403,1.793919,-2.700528,-0.774831
1515639566,0.167484,-0.024933,-0.872648,1.949742,-2.793137,-0.811375
1515639566,0.1856,-0.058032,-0.848517,2.056871,-2.931795,-0.830003
1515639566,0.207173,-0.087561,-0.820528,2.133846,-3.154687,-0.827663
1515639567,0.22543,-0.119275,-0.793444,2.14855,-3.345066,-0.782578
1515639567,0.24292,-0.110697,-0.787049,2.104888,-3.464669,-0.67754
1515639567,0.2863,-0.069263,-0.784185,2.063542,-3.600296,-0.530986
1515639567,0.330891,-0.062801,-0.76697,2.034391,-3.77952,-0.35475
1515639567,0.379826,-0.069708,-0.762498,1.97086,-3.829247,-0.157756
1515639567,0.444608,-0.036811,-0.769647,1.884273,-3.817354,0.007492
1515639567,0.501621,-0.00836,-0.773529,1.803374,-3.843588,0.117154
1515639567,0.539751,0.000124,-0.782264,1.746084,-3.882352,0.184134
1515639567,0.576523,0.026486,-0.802298,1.707547,-3.87208,0.247055
1515639567,0.6132,0.070512,-0.810847,1.700446,-3.797824,0.315581
1515639567,0.64394,0.093353,-0.796537,1.702289,-3.653408,0.416372
1515639567,0.64667,0.113323,-0.803592,1.772718,-3.529858,0.511781
1515639567,0.63718,0.143231,-0.805942,1.974526,-3.512861,0.562051
1515639567,0.618701,0.16862,-0.791186,2.276623,-3.589926,0.60666
1515639567,0.597904,0.197419,-0.78365,2.636118,-3.745366,0.654181
1515639567,0.601278,0.235789,-0.767499,3.038827,-3.949487,0.701523
1515639567,0.625976,0.300121,-0.755566,3.417799,-4.131331,0.718031
1515639567,0.686376,0.428745,-0.774571,3.741362,-4.222934,0.663449
1515639567,0.781603,0.590198,-0.776706,4.034349,-4.361302,0.516982
1515639567,0.891206,0.724863,-0.770046,4.281475,-4.508422,0.365129
1515639567,0.990776,0.847598,-0.764502,4.469571,-4.513653,0.333215
1515639567,1.064229,0.951188,-0.755085,4.633857,-4.372563,0.430868
1515639567,1.12501,0.996006,-0.724342,4.813319,-4.14213,0.566203
1515639567,1.168835,1.015571,-0.679801,4.995585,-3.759668,0.732001
1515639567,1.18419,1.076894,-0.652203,5.193843,-3.264383,0.893993
1515639567,1.204724,1.161817,-0.601884,5.468042,-2.890754,0.964917
1515639567,1.237649,1.207154,-0.519201,5.683293,-2.722487,0.934779
1515639567,1.232504,1.177337,-0.447395,5.779016,-2.568734,0.908791
1515639567,1.192346,1.073011,-0.370117,5.705483,-2.479803,0.899518
1515639567,1.17793,0.955529,-0.35752,5.438417,-2.376088,0.915799
1515639567,1.158104,0.835805,-0.348786,5.082467,-2.250626,0.966238
1515639567,1.106601,0.71369,-0.322178,4.786129,-2.09943,1.07331
1515639567,1.055519,0.643161,-0.276867,4.688191,-2.133137,1.152017
1515639567,1.027089,0.633789,-0.221345,4.727551,-2.332881,1.170425
1515639567,1.002319,0.656328,-0.185178,4.792511,-2.529246,1.168602
1515639567,0.985142,0.672435,-0.151219,4.821195,-2.734218,1.111286
1515639567,1.002456,0.716124,-0.140491,4.729788,-2.899305,0.989048
1515639567,1.016247,0.790919,-0.140339,4.544192,-2.717279,0.916135
1515639567,1.034477,0.899207,-0.104373,4.40891,-2.434024,0.878828
1515639567,1.048678,0.942387,0.001622,4.351358,-2.342748,0.815204
1515639567,1.047712,0.89707,0.105975,4.254344,-2.260165,0.731269
1515639567,1.034867,0.868039,0.16985,4.137321,-2.097942,0.649777
1515639567,1.014884,0.886011,0.226008,4.045331,-1.873865,0.555752
1515639567,1.008663,0.914828,0.278272,3.981716,-1.713309,0.404983
1515639567,0.982097,0.915416,0.348453,3.899412,-1.500673,0.221366
1515639567,0.922062,0.863245,0.436681,3.79649,-1.256238,0.029337
1515639567,0.858689,0.779636,0.517115,3.687754,-1.072463,-0.156541
1515639567,0.795752,0.709096,0.589589,3.532543,-0.943198,-0.334126
1515639567,0.727714,0.665966,0.624352,3.301868,-0.744268,-0.476291
1515639567,0.663113,0.643865,0.637993,3.045401,-0.415991,-0.513479
1515639567,0.615461,0.613529,0.667447,2.845513,-0.186505,-0.450821
1515639567,0.545088,0.566972,0.71024,2.65061,0.085297,-0.273919
1515639567,0.475446,0.567255,0.713485,2.430235,0.452487,-0.020958
1515639567,0.457214,0.60524,0.726872,2.235019,0.537117,0.151992
1515639567,0.433523,0.602977,0.774732,2.08171,0.484967,0.251921
1515639567,0.391848,0.560198,0.833004,1.885617,0.436853,0.342253
1515639567,0.351928,0.536558,0.857007,1.609278,0.399952,0.441118
1515639567,0.311965,0.525198,0.861098,1.278752,0.333886,0.595271
1515639567,0.264992,0.536521,0.856362,0.906669,0.259988,0.822938
1515639567,0.219246,0.556949,0.833475,0.495017,0.192181,1.088997
1515639567,0.167352,0.564525,0.799305,0.038824,-0.026626,1.225425
1515639567,0.14903,0.599978,0.754179,-0.431572,-0.217695,1.280932
1515639567,0.101687,0.583331,0.749349,-0.889331,-0.282036,1.296448
1515639567,0.06194,0.542209,0.75451,-1.28638,-0.220388,1.243201
1515639567,0.033346,0.527962,0.772526,-1.594193,-0.107105,1.157157
1515639567,0.011111,0.530189,0.789285,-1.822758,-0.012473,1.058286
1515639567,0.00541,0.527543,0.794729,-2.002445,-0.000465,0.935651
1515639567,0.010581,0.51924,0.788884,-2.175306,-0.031986,0.794718
1515639567,0.021626,0.524326,0.75365,-2.391128,-0.041388,0.64213
1515639567,0.042979,0.53793,0.701225,-2.609164,0.068244,0.520936
1515639567,0.061644,0.534023,0.679569,-2.781009,0.264169,0.445949
1515639567,0.089951,0.519033,0.670628,-2.934784,0.47182,0.407267
1515639567,0.098331,0.552872,0.646309,-3.00604,0.660516,0.493276
1515639567,0.07402,0.616187,0.640576,-2.994488,0.795381,0.602556
1515639567,0.082606,0.693357,0.608201,-3.017076,0.924777,0.699011
1515639567,0.043553,0.76234,0.578778,-3.114208,1.028258,0.786803
1515639567,-0.013468,0.77946,0.560643,-3.32035,1.021675,0.823991
1515639567,-0.065792,0.799912,0.515336,-3.63792,0.934752,0.829884
1515639567,-0.127327,0.850938,0.453582,-4.032962,0.792175,0.80034
1515639567,-0.19694,0.937866,0.363077,-4.443053,0.657057,0.730312
1515639567,-0.257306,1.012701,0.285884,-4.824881,0.579619,0.61575
1515639567,-0.297252,1.050336,0.214351,-5.128832,0.62285,0.476121
1515639567,-0.300114,1.074171,0.161872,-5.359405,0.699593,0.284426
1515639567,-0.280067,1.057906,0.104356,-5.554942,0.797864,0.064048
1515639567,-0.253403,1.020787,0.025678,-5.731814,0.953711,-0.172079
1515639567,-0.24417,1.006509,-0.053148,-5.876338,1.076898,-0.461625
1515639567,-0.236291,1.016552,-0.163124,-5.93934,1.164549,-0.82057
1515639567,-0.191564,1.028888,-0.256499,-5.784849,1.082263,-1.196085
1515639567,-0.143986,1.004931,-0.300781,-5.528677,0.765452,-1.534113
1515639567,-0.105984,0.96501,-0.368312,-5.291484,0.318546,-1.765
1515639567,-0.052654,0.944421,-0.451144,-5.133466,-0.21752,-1.800123
1515639567,0.002948,0.936118,-0.519836,-5.069887,-0.698358,-1.56855
1515639567,0.04991,0.941136,-0.592133,-5.148504,-1.051791,-1.136113
1515639567,0.0755,0.889369,-0.659133,-5.254762,-1.196106,-0.604774
1515639567,0.075384,0.748596,-0.660079,-5.305964,-1.181532,-0.122875
1515639567,0.05439,0.613417,-0.644659,-5.238101,-1.00318,0.190234
1515639567,0.018421,0.532505,-0.624222,-5.011852,-0.750112,0.310757
1515639567,-0.036454,0.491929,-0.607729,-4.665412,-0.447124,0.296148
1515639567,-0.116052,0.445622,-0.584697,-4.333447,-0.085678,0.256179
1515639568,-0.203575,0.364316,-0.588997,-4.063575,0.398675,0.252914
1515639568,-0.292434,0.308746,-0.610012,-3.826689,0.869045,0.243187
1515639568,-0.359259,0.260508,-0.643277,-3.563447,1.153653,0.152776
1515639568,-0.408908,0.191049,-0.68895,-3.241318,1.202693,-0.024908
1515639568,-0.437711,0.126107,-0.730644,-2.859768,1.07452,-0.223531
1515639568,-0.448334,0.08045,-0.759546,-2.431294,0.848669,-0.373483
1515639568,-0.440773,0.045084,-0.770344,-2.007492,0.556726,-0.468269
1515639568,-0.420725,-0.011245,-0.767392,-1.67168,0.305636,-0.508561
1515639568,-0.394776,-0.055095,-0.769001,-1.449875,0.020951,-0.557569
1515639568,-0.345175,-0.078772,-0.76562,-1.313001,-0.321589,-0.635636
1515639568,-0.283763,-0.110115,-0.755975,-1.237662,-0.598593,-0.692146
1515639568,-0.21862,-0.111216,-0.739474,-1.173766,-0.68647,-0.703129
1515639568,-0.156932,-0.094021,-0.706738,-1.135666,-0.538485,-0.680131
1515639568,-0.10694,-0.09276,-0.685945,-1.105967,-0.296923,-0.672751
1515639568,-0.065546,-0.112548,-0.661008,-1.093561,-0.036261,-0.689822
1515639568,-0.041376,-0.138899,-0.65332,-1.098997,0.190306,-0.725162
1515639568,-0.038937,-0.164697,-0.658485,-1.080101,0.332967,-0.748036
1515639568,-0.057604,-0.205779,-0.671268,-1.018706,0.39183,-0.757365
1515639568,-0.072249,-0.252851,-0.690495,-0.938987,0.326323,-0.741597
1515639568,-0.094877,-0.298043,-0.72151,-0.865914,0.176698,-0.699519
1515639568,-0.11476,-0.324515,-0.75792,-0.802175,0.000339,-0.613843
1515639568,-0.120676,-0.31705,-0.792434,-0.728453,-0.212192,-0.498459
1515639568,-0.102411,-0.294555,-0.823156,-0.641871,-0.428908,-0.385221
1515639568,-0.080496,-0.277046,-0.83484,-0.532189,-0.605013,-0.297391
1515639568,-0.064339,-0.280933,-0.828609,-0.375443,-0.677644,-0.230445
1515639568,-0.039366,-0.278045,-0.822059,-0.190638,-0.672345,-0.22394
1515639568,-0.009218,-0.28236,-0.811268,-0.012448,-0.648897,-0.269605
1515639568,0.013222,-0.313378,-0.793693,0.153535,-0.578722,-0.312954
1515639568,0.024923,-0.343013,-0.780768,0.297886,-0.47901,-0.301822
1515639568,0.032905,-0.358529,-0.783342,0.436237,-0.417791,-0.216225
1515639568,0.027896,-0.357303,-0.794528,0.575258,-0.421578,-0.06372
1515639568,0.01034,-0.354869,-0.810642,0.71422,-0.527544,0.121417
1515639568,-0.01204,-0.347021,-0.824149,0.868639,-0.683453,0.326617
1515639568,-0.038596,-0.325033,-0.820376,1.020699,-0.817019,0.52231
1515639568,-0.063253,-0.310021,-0.812868,1.138655,-0.963377,0.644377
1515639568,-0.072926,-0.289745,-0.803668,1.230055,-1.131931,0.638414
1515639568,-0.074547,-0.270856,-0.783517,1.284852,-1.277109,0.54404
1515639568,-0.07687,-0.26944,-0.764692,1.321344,-1.409539,0.413465
1515639568,-0.070341,-0.279229,-0.754754,1.37111,-1.587625,0.288048
1515639568,-0.052679,-0.286535,-0.747764,1.456461,-1.796481,0.217956
1515639568,-0.023086,-0.270361,-0.74638,1.574726,-1.980831,0.209809
1515639568,0.014117,-0.22626,-0.765338,1.701179,-2.125891,0.249798
1515639568,0.061763,-0.160932,-0.786422,1.848219,-2.300589,0.280083
1515639568,0.127015,-0.071664,-0.811986,1.958943,-2.477581,0.292218
1515639568,0.199761,0.049077,-0.847907,2.059763,-2.625869,0.28741
1515639568,0.268079,0.16888,-0.846244,2.187588,-2.69224,0.334112
1515639568,0.32944,0.231826,-0.8306,2.325972,-2.633218,0.448483
1515639568,0.378405,0.244601,-0.81809,2.434746,-2.493653,0.614335
1515639568,0.411465,0.228833,-0.808764,2.531049,-2.279775,0.802866
1515639568,0.427267,0.22506,-0.802494,2.672949,-2.030513,0.981967
1515639568,0.425452,0.257088,-0.80152,2.928516,-1.824116,1.125772
1515639568,0.417436,0.313794,-0.803912,3.317945,-1.64985,1.236462
1515639568,0.404827,0.410466,-0.799843,3.793368,-1.531321,1.284068
1515639568,0.402043,0.532787,-0.79569,4.29782,-1.43376,1.275105
1515639568,0.412593,0.673402,-0.784029,4.802732,-1.275504,1.233337
1515639568,0.439318,0.854713,-0.758812,5.252743,-1.077077,1.158655
1515639568,0.47029,1.030528,-0.727391,5.653884,-0.906609,1.100899
1515639568,0.482826,1.169636,-0.673306,6.017863,-0.757758,1.098472
1515639568,0.490707,1.276801,-0.603614,6.313744,-0.635992,1.144943
1515639568,0.488401,1.345102,-0.537094,6.52767,-0.545607,1.222164
1515639568,0.486808,1.414392,-0.492175,6.680966,-0.486303,1.244858
1515639568,0.522161,1.541973,-0.437779,6.792759,-0.559861,1.136942
1515639568,0.551494,1.685253,-0.348673,6.852952,-0.605868,0.941696
1515639568,0.550969,1.711742,-0.231568,6.775129,-0.52502,0.733033
1515639568,0.547797,1.6595,-0.12024,6.567809,-0.422565,0.524401
1515639568,0.532215,1.562952,-0.012678,6.264283,-0.314399,0.360516
1515639568,0.499462,1.446238,0.071599,5.892665,-0.120784,0.325932
1515639568,0.4438,1.395084,0.13501,5.500773,0.188242,0.469839
1515639568,0.415006,1.367859,0.209671,5.205957,0.188239,0.666924
1515639568,0.391517,1.26632,0.304555,4.930705,0.045797,0.882634
1515639568,0.353946,1.138902,0.379573,4.629811,-0.096815,1.104725
1515639568,0.309014,1.019463,0.444285,4.330265,-0.26913,1.301115
1515639568,0.278737,0.953323,0.481556,4.026978,-0.499775,1.417314
1515639568,0.271692,0.980272,0.49161,3.75135,-0.723623,1.418417
1515639568,0.269372,1.021884,0.51841,3.531967,-0.912877,1.315212
1515639568,0.273674,1.019383,0.558541,3.336967,-0.976355,1.144293
1515639568,0.263473,1.019328,0.603499,3.160521,-0.751536,0.976671
1515639568,0.271025,1.020176,0.690386,3.069615,-0.533623,0.788807
1515639568,0.277799,0.958213,0.7945,2.970696,-0.371043,0.592187
1515639568,0.26959,0.875211,0.849358,2.76924,-0.212244,0.399769
1515639568,0.259879,0.807946,0.876229,2.495339,-0.074119,0.231754
1515639568,0.248611,0.740458,0.908353,2.2135,0.005289,0.142389
1515639568,0.226553,0.652511,0.955154,1.945176,0.018619,0.15191
1515639568,0.203193,0.568514,0.990026,1.662443,-0.02043,0.243301
1515639568,0.176092,0.498522,1.000766,1.318184,-0.102476,0.386731
1515639568,0.149237,0.449445,0.977077,0.923028,-0.224206,0.5449
1515639568,0.1374,0.43377,0.950706,0.506602,-0.356693,0.698748
1515639568,0.121044,0.451004,0.921307,0.101444,-0.440146,0.834678
1515639568,0.101862,0.485416,0.891449,-0.292471,-0.472432,0.946299
1515639568,0.088701,0.511017,0.8613,-0.65969,-0.50551,1.004625
1515639568,0.084167,0.511465,0.845207,-0.989761,-0.514862,1.018295
1515639568,0.084843,0.491743,0.835675,-1.284923,-0.489936,1.004396
1515639568,0.071987,0.458342,0.826681,-1.548204,-0.44781,0.983113
1515639568,0.051861,0.41587,0.803545,-1.774184,-0.397894,0.909647
1515639568,0.052653,0.40176,0.770484,-1.939689,-0.307081,0.773474
1515639568,0.042019,0.403304,0.748056,-2.035076,-0.177459,0.584188
1515639568,0.037014,0.392718,0.727149,-2.064455,-0.026056,0.336387
1515639568,0.051581,0.397125,0.700413,-2.076706,0.229745,0.052766
1515639568,0.06485,0.442318,0.668676,-2.075177,0.497307,-0.223339
1515639568,0.070034,0.468834,0.647263,-2.071469,0.653124,-0.458314
1515639569,0.078447,0.462753,0.627346,-2.107103,0.68307,-0.625585
1515639569,0.087796,0.442987,0.606172,-2.173154,0.659454,-0.696072
1515639569,0.091884,0.413656,0.597895,-2.256034,0.614224,-0.652581
1515639569,0.093734,0.400575,0.590015,-2.352431,0.534685,-0.523951
1515639569,0.093482,0.421169,0.57699,-2.444367,0.439076,-0.332486
1515639569,0.078735,0.459069,0.567179,-2.536103,0.43482,-0.09268
1515639569,0.067555,0.525978,0.563893,-2.630859,0.410383,0.126786
1515639569,0.053866,0.583528,0.559771,-2.731381,0.316933,0.283076
1515639569,0.029565,0.608339,0.543699,-2.865327,0.249057,0.332847
1515639569,0.013016,0.659153,0.512073,-3.050959,0.21623,0.269729
1515639569,-0.006136,0.750489,0.458611,-3.299828,0.30974,0.144191
1515639569,-0.030347,0.846886,0.385139,-3.559943,0.458573,-0.022709
1515639569,-0.046707,0.930627,0.307205,-3.782411,0.580035,-0.221687
1515639569,-0.055472,0.999862,0.227539,-3.947476,0.623127,-0.415618
1515639569,-0.060914,1.05774,0.135527,-4.050124,0.622881,-0.567049
1515639569,-0.058813,1.125487,0.051621,-4.125485,0.565301,-0.69098
1515639569,-0.058002,1.180593,-0.038948,-4.228022,0.445862,-0.807712
1515639569,-0.037975,1.209219,-0.129338,-4.346492,0.206224,-0.950518
1515639569,0.007531,1.219923,-0.201213,-4.498038,-0.037858,-1.089089
1515639569,0.047563,1.196914,-0.228015,-4.683507,-0.087687,-1.157605
1515639569,0.088971,1.130677,-0.244341,-5.03659,0.180356,-1.135378
1515639569,0.115009,1.046397,-0.33741,-5.422601,0.535523,-1.159722
1515639569,0.132341,0.943741,-0.415351,-5.581901,0.755128,-1.32949
1515639569,0.166641,0.872318,-0.458403,-5.39766,0.803631,-1.620245
1515639569,0.206898,0.852404,-0.486676,-4.948823,0.563397,-1.940816
1515639569,0.254342,0.866194,-0.542751,-4.494185,0.064439,-2.115305
1515639569,0.309347,0.906591,-0.646906,-4.250345,-0.499129,-1.999117
1515639569,0.371439,0.950708,-0.746903,-4.219672,-1.104911,-1.624143
1515639569,0.431886,0.966862,-0.792424,-4.32615,-1.439823,-0.983759
1515639569,0.451055,0.908143,-0.780614,-4.570006,-1.269579,-0.227346
1515639569,0.457119,0.758191,-0.762775,-4.890204,-0.839918,0.363762
1515639569,0.41207,0.561419,-0.747217,-5.135542,-0.31991,0.696214
1515639569,0.317584,0.408947,-0.743621,-5.16339,0.239075,0.803985
1515639569,0.2055,0.312656,-0.749609,-4.893572,0.726755,0.747436
1515639569,0.094178,0.227182,-0.738138,-4.391718,1.082033,0.571063
1515639569,-0.005246,0.132928,-0.730682,-3.813971,1.320962,0.308977
1515639569,-0.082687,0.048744,-0.739496,-3.298232,1.45218,0.01764
1515639569,-0.14714,-0.025343,-0.751252,-2.877584,1.475376,-0.23899
1515639569,-0.202219,-0.086733,-0.766585,-2.550209,1.425536,-0.409603
1515639569,-0.240365,-0.123285,-0.787394,-2.269021,1.294427,-0.503809
1515639569,-0.252821,-0.141898,-0.789747,-2.023649,1.11404,-0.530002
1515639569,-0.250888,-0.17117,-0.790526,-1.812443,0.932333,-0.529564
1515639569,-0.230999,-0.208205,-0.791166,-1.629827,0.722859,-0.549507
1515639569,-0.186467,-0.240755,-0.786461,-1.465542,0.529286,-0.593914
1515639569,-0.132072,-0.266032,-0.78055,-1.284376,0.467664,-0.629254
1515639569,-0.078398,-0.289592,-0.759516,-1.046304,0.488205,-0.643984
1515639569,-0.023862,-0.311656,-0.730985,-0.795879,0.557704,-0.642518
1515639569,0.012654,-0.338573,-0.709997,-0.602893,0.71185,-0.598099
1515639569,0.031549,-0.360304,-0.703998,-0.499164,0.92706,-0.503369
1515639569,0.04172,-0.37863,-0.707962,-0.454348,1.049315,-0.369598
1515639569,0.028899,-0.402774,-0.720441,-0.437387,1.070302,-0.210669
1515639569,0.000615,-0.401883,-0.731277,-0.423829,1.00403,-0.026498
1515639569,-0.027802,-0.381316,-0.739849,-0.400728,0.835753,0.148745
1515639569,-0.05703,-0.370403,-0.749721,-0.38886,0.612178,0.288575
1515639569,-0.086212,-0.3712,-0.764362,-0.406934,0.388544,0.378286
1515639569,-0.117228,-0.37962,-0.78471,-0.450328,0.239287,0.433102
1515639569,-0.149158,-0.382928,-0.809512,-0.500644,0.141117,0.456142
1515639569,-0.175886,-0.377607,-0.837932,-0.507021,0.027328,0.438625
1515639569,-0.191504,-0.370114,-0.861756,-0.471861,-0.074479,0.392385
1515639569,-0.208662,-0.35529,-0.890291,-0.41086,-0.085758,0.361453
1515639569,-0.223698,-0.345046,-0.915182,-0.271438,-0.140188,0.327184
1515639569,-0.227321,-0.346897,-0.92513,-0.076671,-0.282521,0.274468
1515639569,-0.230311,-0.3585,-0.939324,0.134238,-0.436429,0.215323
1515639569,-0.233536,-0.37474,-0.947047,0.358749,-0.560527,0.16909
1515639569,-0.2287,-0.387365,-0.946094,0.60476,-0.698309,0.114285
1515639569,-0.212838,-0.390723,-0.945476,0.859273,-0.830752,0.072297
1515639569,-0.188836,-0.376606,-0.948212,1.126498,-0.95045,0.065544
1515639569,-0.162657,-0.360939,-0.941274,1.397887,-1.056395,0.105759
1515639569,-0.128694,-0.335769,-0.941997,1.675728,-1.165517,0.159826
1515639569,-0.088762,-0.268842,-0.938106,1.982324,-1.264922,0.219273
1515639569,-0.051971,-0.177797,-0.913506,2.283248,-1.33033,0.282054
1515639569,-0.007591,-0.092474,-0.886471,2.541492,-1.402356,0.33839
1515639569,0.042202,-0.02715,-0.858815,2.713207,-1.47698,0.38508
1515639569,0.095967,0.025852,-0.832012,2.82254,-1.509445,0.440438
1515639569,0.153324,0.096364,-0.80387,2.905373,-1.563352,0.504225
1515639569,0.199539,0.19007,-0.778646,2.995847,-1.633194,0.580745
1515639569,0.21567,0.259844,-0.741656,3.051705,-1.658623,0.679813
1515639569,0.232978,0.286104,-0.721655,3.057997,-1.640765,0.793958
1515639569,0.255066,0.285907,-0.700049,3.006499,-1.613691,0.915571
1515639569,0.269296,0.291386,-0.699064,2.918158,-1.533651,1.038449
1515639569,0.29079,0.354098,-0.720998,2.883289,-1.458613,1.158134
1515639569,0.317081,0.446513,-0.733381,2.986663,-1.426318,1.247863
1515639569,0.321941,0.488144,-0.722487,3.182054,-1.407272,1.320529
1515639569,0.315518,0.495976,-0.715471,3.43424,-1.406978,1.360094
1515639569,0.318149,0.535753,-0.717557,3.6821,-1.402417,1.379418
1515639569,0.332502,0.605487,-0.751125,3.933049,-1.387136,1.372136
1515639569,0.363662,0.72594,-0.801258,4.236896,-1.318331,1.346973
1515639569,0.397089,0.883116,-0.835415,4.627681,-1.180938,1.306134
1515639569,0.435751,1.063456,-0.826152,5.13129,-1.000315,1.23993
1515639569,0.462491,1.2406,-0.75306,5.668653,-0.886358,1.118045
1515639569,0.486117,1.374609,-0.67258,6.205266,-0.807379,0.944849
1515639569,0.522342,1.503097,-0.570179,6.703084,-0.69563,0.757905
1515639569,0.56092,1.593203,-0.45358,7.030082,-0.599691,0.546298
1515639569,0.583011,1.62255,-0.347774,7.127194,-0.375479,0.401191
1515639569,0.577773,1.618468,-0.233954,7.06832,-0.149152,0.335974
1515639569,0.593722,1.623082,-0.123197,6.918982,-0.065985,0.331973
1515639569,0.596317,1.648762,-0.009086,6.691206,-0.044043,0.400183
1515639569,0.588299,1.625804,0.100156,6.371681,-0.144986,0.492374
1515639569,0.561066,1.550371,0.205876,6.010997,-0.297302,0.618449
1515639570,0.495351,1.421062,0.336817,5.619334,-0.448772,0.769038
1515639570,0.423448,1.26097,0.442236,5.180327,-0.677032,0.897975
1515639570,0.348671,1.12712,0.492303,4.602797,-0.724307,1.058488
1515639570,0.255582,1.061692,0.476742,3.953164,-0.609284,1.224953
1515639570,0.229259,1.039546,0.471809,3.391879,-0.682867,1.30328
1515639570,0.22616,1.026621,0.465972,2.933053,-0.858812,1.283162
1515639570,0.23094,1.028497,0.478429,2.683913,-1.065236,1.170278
1515639570,0.242263,1.032599,0.54335,2.658975,-1.255355,0.998932
1515639570,0.268324,1.03473,0.604699,2.780479,-1.453045,0.784982
1515639570,0.311041,1.030382,0.656738,2.989053,-1.597967,0.501992
1515639570,0.357654,1.020984,0.729917,3.173861,-1.610977,0.138497
1515639570,0.390665,0.986031,0.812705,3.298852,-1.405356,-0.181508
1515639570,0.365648,0.881355,0.917625,3.28334,-1.029624,-0.36657
1515639570,0.334445,0.746716,0.980971,3.116415,-0.679508,-0.417478
1515639570,0.292605,0.641028,1.026146,2.845526,-0.512033,-0.389217
1515639570,0.249648,0.639732,1.043785,2.486392,-0.722417,-0.444605
1515639570,0.24397,0.618181,0.956228,2.110018,-1.128919,-0.344071
1515639570,0.183856,0.455991,0.935376,1.753269,-1.567581,-0.081616
1515639570,0.120979,0.352507,0.953248,1.416099,-2.146706,0.269837
1515639570,0.120937,0.291588,0.928903,1.067546,-2.543058,0.658265
1515639570,0.143755,0.2959,0.880567,0.638568,-2.913152,0.985993
1515639570,0.184159,0.383054,0.789398,0.164886,-3.087611,1.213203
1515639570,0.229376,0.509951,0.75241,-0.243932,-2.68516,1.385195
1515639570,0.319957,0.620959,0.792986,-0.473725,-2.127291,1.476876
1515639570,0.42046,0.664852,0.854137,-0.663378,-1.41897,1.443381
1515639570,0.469526,0.669836,0.882687,-0.886948,-0.632018,1.354751
1515639570,0.466079,0.650774,0.894548,-1.128342,-0.098304,1.277888
1515639570,0.416813,0.666198,0.860836,-1.477576,0.09875,1.194292
1515639570,0.366068,0.731459,0.759196,-1.893838,0.158176,1.135699
1515639570,0.334152,0.796381,0.686002,-2.28742,0.194259,1.109003
1515639570,0.319,0.842197,0.641031,-2.597903,0.255295,1.077118
1515639570,0.307825,0.82621,0.635402,-2.868546,0.392178,0.99545
1515639570,0.294953,0.749062,0.63195,-3.151453,0.68759,0.850449
1515639570,0.296246,0.692038,0.617834,-3.410132,1.015205,0.635228
1515639570,0.298349,0.685937,0.595759,-3.616614,1.358056,0.397705
1515639570,0.268649,0.741046,0.549444,-3.76956,1.689549,0.150571
1515639570,0.230248,0.821964,0.501565,-3.888893,1.861683,-0.087595
1515639570,0.170566,0.840953,0.450836,-4.048504,1.894103,-0.258119
1515639570,0.086978,0.831748,0.382986,-4.227972,1.887836,-0.29341
1515639570,0.035037,0.861784,0.327661,-4.354786,1.637086,-0.242235
1515639570,0.023546,0.895342,0.27701,-4.476079,1.260764,-0.143592
1515639570,0.01437,0.936097,0.222444,-4.646192,0.958663,-0.069192
1515639570,0.01271,1.017946,0.155208,-4.866996,0.810628,-0.064561
1515639570,0.024131,1.11595,0.080086,-5.090129,0.90183,-0.046177
1515639570,0.034268,1.185647,-0.005087,-5.279293,0.796503,-0.036029
1515639570,0.064079,1.24359,-0.11255,-5.377068,0.633227,-0.033532
1515639570,0.096428,1.274487,-0.161161,-5.521816,0.686526,0.014587
1515639570,0.125082,1.254071,-0.247921,-5.780626,0.82107,0.054446
1515639570,0.117974,1.166077,-0.334699,-6.013172,1.10697,0.011773
1515639570,0.09713,1.032604,-0.363358,-6.090589,1.477988,-0.125364
1515639570,0.091474,0.900669,-0.384825,-5.983762,1.796095,-0.383092
1515639570,0.10945,0.822447,-0.4337,-5.666584,2.012586,-0.79038
1515639570,0.147051,0.827884,-0.493644,-5.154779,1.989031,-1.30621
1515639570,0.193767,0.883029,-0.542184,-4.530982,1.659765,-1.788033
1515639570,0.259861,0.923922,-0.585858,-4.0467,0.969576,-1.972869
1515639570,0.33463,0.966183,-0.698217,-3.948411,0.217694,-1.719983
1515639570,0.397758,1.007155,-0.82792,-4.15694,-0.391075,-1.099938
1515639570,0.447951,0.997504,-0.868403,-4.394608,-0.850543,-0.26716
1515639570,0.464848,0.881942,-0.809867,-4.613053,-1.090795,0.552649
1515639570,0.454851,0.725775,-0.769684,-4.838698,-0.932851,1.152309
1515639570,0.396599,0.617708,-0.744175,-4.981495,-0.409064,1.484825
1515639570,0.339949,0.547775,-0.716769,-4.966301,0.334318,1.517666
1515639570,0.269512,0.474324,-0.701447,-4.794363,1.206841,1.270721
1515639570,0.164271,0.363529,-0.708453,-4.514694,2.08894,0.823444
1515639570,0.045396,0.239313,-0.7404,-4.153,2.771861,0.250676
1515639570,-0.05004,0.098922,-0.780504,-3.71105,3.11391,-0.339411
1515639570,-0.116333,-0.033435,-0.816688,-3.227604,3.150753,-0.829427
1515639570,-0.156909,-0.129974,-0.841779,-2.742817,3.059556,-1.129129
1515639570,-0.168782,-0.18592,-0.855104,-2.357624,3.001346,-1.217664
1515639570,-0.151675,-0.218755,-0.888474,-2.051228,2.921136,-1.183727
1515639570,-0.116554,-0.230203,-0.898072,-1.745602,2.703618,-1.097036
1515639570,-0.07445,-0.237292,-0.884857,-1.455891,2.365795,-0.99378
1515639570,-0.026204,-0.252258,-0.868737,-1.214514,2.054265,-0.880845
1515639570,0.029242,-0.265121,-0.84369,-1.061948,1.865567,-0.755731
1515639570,0.073417,-0.280227,-0.822181,-0.991796,1.800791,-0.6195
1515639570,0.089992,-0.322126,-0.805627,-0.964178,1.715541,-0.470577
1515639570,0.093305,-0.385386,-0.808547,-0.929094,1.521868,-0.327418
1515639570,0.076409,-0.436786,-0.817296,-0.896142,1.328153,-0.173601
1515639570,0.030394,-0.461302,-0.840653,-0.91507,1.306341,0.019262
1515639570,0.002661,-0.432269,-0.894221,-0.907471,1.194301,0.209646
1515639570,-0.023982,-0.350939,-0.932082,-0.774349,0.918251,0.348258
1515639570,-0.067065,-0.289745,-0.920158,-0.631064,0.582859,0.417341
1515639570,-0.098835,-0.29677,-0.930382,-0.605824,0.296897,0.432197
1515639570,-0.135794,-0.333154,-0.946145,-0.658033,0.06163,0.405642
1515639570,-0.165958,-0.384426,-0.951987,-0.73793,-0.184374,0.354512
1515639570,-0.189274,-0.436342,-0.972461,-0.804414,-0.380385,0.330238
1515639570,-0.224027,-0.461136,-1.007666,-0.806191,-0.415566,0.364211
1515639570,-0.246102,-0.444844,-1.043079,-0.691113,-0.490491,0.397011
1515639570,-0.246897,-0.433954,-1.068778,-0.468371,-0.649809,0.401809
1515639570,-0.244384,-0.430937,-1.088016,-0.158115,-0.799009,0.389633
1515639570,-0.24274,-0.419936,-1.094909,0.204222,-0.921275,0.353068
1515639570,-0.235877,-0.410704,-1.09724,0.574541,-0.986045,0.307144
1515639570,-0.225715,-0.40033,-1.092825,0.965118,-1.046447,0.261246
1515639570,-0.197727,-0.381325,-1.07391,1.356375,-1.175974,0.219338
1515639570,-0.150893,-0.347732,-1.054147,1.698234,-1.280278,0.182835
1515639570,-0.100792,-0.294945,-1.038277,1.992878,-1.363619,0.158119
1515639570,-0.04696,-0.231696,-1.013647,2.257888,-1.475842,0.136473
1515639570,0.012184,-0.165732,-0.990693,2.514287,-1.580705,0.131911
1515639570,0.066149,-0.093938,-0.95972,2.750893,-1.626227,0.17022
1515639571,0.11863,-0.034227,-0.925491,2.944176,-1.609394,0.268456
1515639571,0.163673,0.024203,-0.893519,3.096943,-1.488717,0.433188
1515639571,0.206328,0.102657,-0.856061,3.228997,-1.325609,0.599151
1515639571,0.254323,0.162501,-0.800994,3.34213,-1.196572,0.728717
1515639571,0.285582,0.185089,-0.744977,3.428662,-1.080393,0.831566
1515639571,0.302779,0.193519,-0.697721,3.476236,-0.913409,0.944196
1515639571,0.307311,0.206878,-0.667741,3.520763,-0.761386,1.081284
1515639571,0.305433,0.23764,-0.657731,3.611781,-0.66443,1.233099
1515639571,0.2974,0.290933,-0.650079,3.79839,-0.619,1.36556
1515639571,0.289248,0.352438,-0.631742,4.05277,-0.620984,1.477611
1515639571,0.288367,0.417882,-0.628663,4.329943,-0.661022,1.547945
1515639571,0.282114,0.529453,-0.642175,4.572738,-0.572595,1.623041
1515639571,0.292296,0.716787,-0.685894,4.79079,-0.469325,1.654474
1515639571,0.346835,0.954531,-0.72903,4.980098,-0.488416,1.641694
1515639571,0.404229,1.173315,-0.763827,5.114915,-0.508857,1.612889
1515639571,0.458737,1.356576,-0.780147,5.252672,-0.50265,1.568204
1515639571,0.504286,1.500252,-0.721663,5.470698,-0.51183,1.478722
1515639571,0.533532,1.560799,-0.597567,5.772922,-0.499252,1.385102
1515639571,0.535562,1.562055,-0.449444,6.055919,-0.380319,1.241796
1515639571,0.537687,1.560161,-0.307347,6.225134,-0.210883,1.047465
1515639571,0.511223,1.517792,-0.181674,6.249803,-0.122996,0.804762
1515639571,0.473626,1.465903,-0.096222,6.092929,0.06686,0.629548
1515639571,0.411421,1.543555,-0.049825,5.862074,0.399535,0.603058
1515639571,0.39832,1.62133,0.050093,5.643766,0.322828,0.580259
1515639571,0.39187,1.556336,0.16702,5.329544,0.113557,0.617645
1515639571,0.352401,1.441842,0.279779,4.893095,-0.04976,0.720192
1515639571,0.31367,1.29664,0.386961,4.356319,-0.223279,0.849303
1515639571,0.277775,1.130318,0.467381,3.744074,-0.32709,0.997845
1515639571,0.240106,0.995166,0.519478,3.127401,-0.415999,1.129389
1515639571,0.204592,0.907512,0.548685,2.647323,-0.598668,1.213714
1515639571,0.169102,0.850181,0.567464,2.345376,-0.861039,1.251961
1515639571,0.131631,0.834756,0.564309,2.182461,-1.138456,1.243308
1515639571,0.104839,0.867146,0.534898,2.067968,-1.232628,1.214093
1515639571,0.110421,0.970888,0.498996,2.045968,-1.17298,1.116243
1515639571,0.163771,1.040183,0.537841,2.193591,-1.199389,0.933903
1515639571,0.21011,0.972047,0.659807,2.325744,-1.173735,0.740044
1515639571,0.231682,0.849661,0.754969,2.318875,-1.026573,0.548742
1515639571,0.243409,0.75031,0.832234,2.21406,-0.805603,0.384337
1515639571,0.234845,0.664138,0.910157,2.033443,-0.589398,0.253992
1515639571,0.216563,0.596194,0.943344,1.756563,-0.362106,0.150297
