time,accel x,accel y,accel z,gyro x,gyro y,gyro z
1515639299,0.007126,0.027495,0.00672,-0.045275,-0.015663,0.011151
1515639299,0.01234,0.020441,0.000558,-0.031428,-0.011325,0.009043
1515639299,0.011427,0.021323,-0.008349,-0.034522,-0.021998,0.014327
1515639299,0.007657,0.023878,-0.014225,-0.047288,-0.027407,0.022828
1515639299,0.011554,0.020419,-0.014679,-0.067661,-0.020082,0.02498
1515639299,0.011372,0.020339,-0.017743,-0.091405,0.004234,0.028265
1515639299,0.00932,0.015346,-0.026546,-0.095823,0.020137,0.029388
1515639299,0.012539,0.007449,-0.027754,-0.102315,0.0286,0.032617
1515639299,0.012869,0.004927,-0.018819,-0.102327,0.029667,0.031555
1515639299,0.003542,0.008959,-0.007007,-0.117337,0.035914,0.052895
1515639299,-0.017576,0.010861,-0.008138,-0.098934,0.011535,0.071999
1515639299,-0.012298,0.012374,0.002684,-0.050494,-0.024376,0.085737
1515639299,0.004046,0.019047,0.009154,0.007359,-0.038962,0.094232
1515639299,0.023248,0.0204,0.006129,0.061941,-0.048211,0.089957
1515639299,0.038303,0.029576,0.008815,0.106861,-0.052218,0.094226
1515639299,0.04382,0.029037,-0.006996,0.120602,-0.036216,0.10709
1515639299,0.048391,0.022633,-0.0196,0.122634,-0.025576,0.113532
1515639299,0.037158,0.02439,-0.008926,0.120374,-0.012837,0.117846
1515639299,0.027779,0.018353,-0.006759,0.117024,0.002032,0.117904
1515639299,0.019325,0.000879,-0.015124,0.096469,0.027459,0.108402
1515639299,0.006918,-0.012199,-0.022079,0.085557,0.050803,0.097826
1515639299,0.008965,-0.01534,-0.016093,0.081327,0.046515,0.102071
1515639299,0.005669,-0.00675,-0.010316,0.078294,0.029441,0.124391
1515639299,-0.006451,0.002876,-0.006392,0.07631,0.014508,0.139255
1515639299,-0.008595,0.003113,-0.01135,0.065768,0.00059,0.153053
1515639299,-0.005038,0.003382,-0.023008,0.053136,-0.018637,0.1583
1515639299,0.003003,0.003957,-0.034202,0.023771,-0.074151,0.177252
1515639299,0.010926,0.005712,-0.054728,-0.048928,-0.069291,0.19536
1515639299,0.020569,-0.003634,-0.066248,-0.153238,-0.001832,0.206247
1515639299,0.023302,-0.017542,-0.057417,-0.231566,0.031743,0.209542
1515639299,0.018822,-0.014224,-0.044348,-0.288263,0.039887,0.217006
1515639300,0.005711,-0.002257,-0.045757,-0.330925,0.032179,0.225483
1515639300,-0.003416,0.003812,-0.052106,-0.371506,0.029806,0.236118
1515639300,0.003672,0.007932,-0.044577,-0.394967,0.025404,0.242485
1515639300,0.022472,0.012584,-0.035911,-0.415877,-0.020496,0.263612
1515639300,0.028154,0.009606,-0.046344,-0.449719,-0.055815,0.277313
1515639300,0.033871,0.012477,-0.05054,-0.527057,-0.014759,0.264647
1515639300,0.02502,0.011421,-0.071126,-0.640968,0.051586,0.264859
1515639300,0.014498,-0.003366,-0.087214,-0.745735,0.165842,0.269535
1515639300,0.020959,-0.013471,-0.057245,-0.825505,0.23769,0.274049
1515639300,0.011943,-0.001466,-0.006494,-0.80402,0.226121,0.266548
1515639300,-0.007313,0.024412,0.050804,-0.709678,0.192701,0.235543
1515639300,-0.01526,0.046053,0.070072,-0.562826,0.142612,0.18424
1515639300,0.003638,0.063458,0.102555,-0.353022,0.101408,0.125541
1515639300,0.023078,0.078775,0.121485,-0.156752,0.025993,0.112539
1515639300,0.017709,0.065681,0.096143,0.014194,-0.081504,0.114321
1515639300,0.02809,0.048195,0.067701,0.119389,-0.130877,0.110975
1515639300,0.047684,0.024951,0.023853,0.132088,-0.119067,0.093971
1515639300,0.064212,-0.001475,-0.021074,0.075368,-0.11085,0.079052
1515639300,0.069374,-0.012066,-0.056354,-0.003082,-0.174056,0.084092
1515639300,0.049273,-0.014643,-0.089451,-0.113841,-0.31837,0.130366
1515639300,0.01517,-0.04484,-0.118185,-0.264631,-0.410865,0.20668
1515639300,-0.023887,-0.093736,-0.139089,-0.455123,-0.484526,0.318231
1515639300,-0.078689,-0.139265,-0.162252,-0.701982,-0.47557,0.435418
1515639300,-0.125801,-0.172244,-0.201323,-0.920256,-0.656875,0.579572
1515639300,-0.144292,-0.183057,-0.194627,-1.172404,-0.652259,0.721258
1515639300,-0.131159,-0.13245,-0.185604,-1.464322,-0.516948,0.813346
1515639300,-0.082269,-0.101392,-0.17581,-1.721635,-0.423964,0.897816
1515639300,-0.029103,-0.100975,-0.134402,-1.908584,-0.42621,0.952091
1515639300,0.021616,-0.067555,-0.112899,-2.085058,-0.409138,0.949943
1515639300,0.06102,-0.045915,-0.10315,-2.222177,-0.26522,0.912074
1515639300,0.096687,-0.03453,-0.084498,-2.319896,-0.217827,0.868508
1515639300,0.127535,-0.056041,-0.084156,-2.422693,-0.304578,0.880906
1515639300,0.105182,-0.091921,-0.118559,-2.628694,-0.435557,0.904802
1515639300,0.111262,-0.10804,-0.206796,-2.863672,-0.556967,0.854097
1515639300,0.106264,-0.051588,-0.234453,-3.109509,-0.6614,0.794927
1515639300,0.069124,0.024787,-0.217418,-3.092125,-0.803641,0.720805
1515639300,0.097047,-0.067118,-0.129795,-3.10579,-1.046162,0.708099
1515639300,0.066435,-0.110892,-0.112273,-3.191653,-1.008332,0.697552
1515639300,0.049952,-0.103272,-0.067233,-3.450304,-0.78428,0.662081
1515639300,0.036267,-0.054956,-0.123381,-3.847875,-0.775904,0.646998
1515639300,-0.001109,0.002,-0.193806,-3.688201,-1.040914,0.672662
1515639300,-0.006646,0.144127,0.399142,-2.349876,-0.222806,0.6446
1515639300,0.028008,0.061519,0.974696,-2.05185,0.654463,0.500077
1515639300,0.085632,-0.274149,0.267869,-1.880727,0.41527,0.430974
1515639300,0.109789,-0.307033,0.165184,-1.325269,0.207148,0.287549
1515639300,0.159695,-0.05663,0.345527,-0.799583,0.203047,0.134264
1515639300,0.159261,0.076586,0.288844,-0.414132,0.116228,-0.000226
1515639300,0.119807,0.175768,0.226561,-0.021634,-0.033399,-0.086991
1515639300,0.043324,0.185811,0.18943,0.379811,-0.112862,-0.141488
1515639300,0.014955,0.122417,0.163013,0.697344,-0.137382,-0.244842
1515639300,0.04908,0.069421,0.138597,0.92944,-0.273096,-0.308174
1515639300,0.016639,0.110626,0.072383,1.02207,-0.454541,-0.264088
1515639300,-0.040736,0.1856,-0.011632,0.955878,-0.563667,-0.143025
1515639300,-0.066014,0.181147,-0.093117,0.76912,-0.581017,0.010335
1515639300,-0.09456,0.167104,-0.143824,0.53181,-0.563576,0.161675
1515639300,-0.102952,0.17169,-0.160805,0.34192,-0.589375,0.271285
1515639300,-0.089968,0.071788,-0.127076,0.231932,-0.592325,0.356507
1515639300,-0.07717,-0.031451,-0.0643,0.254146,-0.566787,0.406725
1515639300,-0.02952,-0.088114,0.000953,0.293586,-0.558012,0.388656
1515639300,0.023142,-0.107981,0.021254,0.327642,-0.545002,0.363138
1515639300,0.055465,-0.091075,0.033297,0.372045,-0.498904,0.312172
1515639300,0.089064,-0.046728,0.037729,0.431968,-0.509134,0.286575
1515639300,0.081317,-0.044496,0.027615,0.511324,-0.5354,0.346207
1515639300,0.048207,-0.06615,0.032954,0.535646,-0.506694,0.417764
1515639300,0.032929,-0.022846,0.010894,0.516268,-0.492929,0.395423
1515639300,0.056413,0.056682,0.004856,0.519544,-0.39385,0.320128
1515639300,0.068924,0.017132,0.011409,0.379464,-0.164924,0.311385
1515639300,0.018095,-0.018493,0.0038,0.314478,-0.070849,0.398082
1515639300,-0.045434,0.020645,0.015054,0.306798,-0.158166,0.428644
1515639300,-0.028819,-0.023785,0.001413,0.281153,-0.269863,0.375945
1515639300,0.007928,-0.041048,-0.012775,0.248391,-0.198744,0.351695
1515639300,-0.02227,-0.064148,0.033514,0.34789,-0.209972,0.402873
1515639300,-0.037677,-0.163017,0.03048,0.460755,-0.386971,0.423538
1515639300,-0.007158,-0.146691,-0.007166,0.523942,-0.50697,0.507306
1515639300,-0.031658,-0.027592,-0.00573,0.545488,-0.51781,0.653324
1515639300,-0.030599,0.066336,-0.028811,0.574088,-0.598601,0.710581
1515639300,0.016608,0.132352,-0.030748,0.557125,-0.613532,0.685994
1515639300,0.02713,0.205087,-0.010834,0.498781,-0.548907,0.639314
1515639300,0.0297,0.241612,-0.016099,0.38859,-0.538743,0.567876
1515639300,0.05072,0.163262,-0.033743,0.317162,-0.452738,0.456254
1515639300,0.058142,0.078986,0.01066,0.301047,-0.44125,0.50853
1515639300,0.011874,0.004664,0.018739,0.301679,-0.396565,0.49698
1515639300,0.054711,-0.002149,0.025712,0.279194,-0.503976,0.440037
1515639300,0.060807,0.02857,-0.029445,0.133038,-0.529209,0.412149
1515639300,0.06039,0.120974,-0.050678,0.077395,-0.410471,0.434986
1515639300,0.057629,0.097532,0.0022,0.039111,-0.427769,0.462616
1515639300,0.066218,0.071731,-0.035953,0.135764,-0.476199,0.491252
1515639300,0.062721,0.035122,0.025132,0.383175,-0.748383,0.622472
1515639300,0.013047,-0.053515,0.007206,0.470938,-0.866215,0.751036
1515639300,0.0368,-0.037689,-0.026468,0.499104,-0.795909,0.78012
1515639300,0.038562,-0.02043,0.012529,0.500465,-0.713104,0.848681
1515639300,0.053744,0.067261,-0.023149,0.345333,-0.476701,0.779191
1515639300,0.110471,0.096722,0.040659,0.635665,-0.433067,1.032164
1515639300,0.009578,-0.122131,0.107245,0.661235,-0.755065,0.987172
1515639300,0.226396,-0.006819,-0.116822,0.226482,-0.359581,0.408608
1515639300,0.301978,0.078415,-0.063779,0.066609,0.367817,0.485011
1515639300,-0.087191,-0.218765,0.066796,0.064013,0.214856,0.871381
1515639300,-0.048199,-0.186038,-0.168343,0.011548,-0.106409,0.778383
1515639300,0.084904,-0.069224,-0.191532,0.005053,-0.19323,1.063739
1515639301,-0.004598,0.001165,-0.117332,0.085894,-0.25493,1.282077
1515639301,-0.120654,0.210042,-0.016937,0.453251,-0.531745,1.884539
1515639301,-0.112618,0.098311,-0.066202,0.420709,-0.707094,1.74203
1515639301,0.196366,0.068305,-0.135224,-0.088607,-0.651831,1.406196
1515639301,0.221641,0.028016,-0.189435,-0.224389,-0.292118,1.893706
1515639301,-0.178797,-0.243011,0.134732,0.145241,-0.269409,2.195672
1515639301,0.197702,-0.158008,0.138227,0.224896,-0.35802,1.604749
1515639301,0.419008,0.051875,0.001983,-0.007064,-0.265614,1.065577
1515639301,0.218534,0.23691,-0.057598,-0.204888,-0.048998,0.706017
1515639301,0.009194,0.410051,-0.058214,-0.330916,0.036201,0.331042
1515639301,-0.113857,0.426781,-0.052081,-0.33104,0.143214,0.042569
1515639301,-0.144938,0.233092,-0.001217,-0.303935,0.311859,-0.162493
1515639301,-0.060399,0.017364,0.033931,-0.216718,0.350761,-0.219867
1515639301,-0.032586,-0.05561,0.049202,-0.045894,0.266179,-0.004778
1515639301,-0.115516,-0.095766,0.057838,0.096724,0.231132,0.338425
1515639301,-0.014708,0.056147,0.080913,0.321707,0.166658,0.262582
1515639301,0.039561,0.191283,0.089321,0.490911,0.231681,0.158451
1515639301,-0.023692,0.061249,0.074711,0.509479,0.295783,0.075563
1515639301,0.077452,0.114169,0.055333,0.582688,0.337154,-0.164102
1515639301,0.078136,0.081154,0.090056,0.691152,0.391962,-0.141443
1515639301,0.004898,-0.147511,0.116215,0.827445,0.352458,0.265698
1515639301,0.042007,-0.236983,0.06644,1.043414,0.239469,0.459373
1515639301,0.052166,-0.225219,0.119375,1.256854,-0.045106,0.817603
1515639301,-0.043756,-0.284926,0.08604,1.375822,-0.172898,1.198801
1515639301,-0.149777,-0.168262,0.108361,1.401633,-0.170454,1.595402
1515639301,-0.129883,-0.046487,0.075241,1.385244,-0.241848,1.616429
1515639301,-0.017767,-0.001134,0.043849,1.333452,-0.3077,1.443435
1515639301,0.031105,0.104774,-0.05411,1.207074,-0.619399,1.167077
1515639301,0.016813,0.134486,-0.178786,0.910334,-0.991675,0.911718
1515639301,0.059644,0.186106,-0.232586,0.691227,-1.219798,0.594075
1515639301,0.079793,0.103424,-0.164258,0.371066,-1.376595,0.464302
1515639301,0.046841,-0.028961,-0.114123,0.097962,-0.87206,0.513103
1515639301,-0.069926,-0.270434,0.14266,0.05201,-0.411791,0.960545
1515639301,-0.12467,-0.299393,0.159227,0.078651,-0.278408,1.30117
1515639301,-0.1239,-0.020535,0.043188,0.054005,-0.14939,1.563931
1515639301,-0.096095,-0.026491,0.014452,0.059936,-0.091278,1.747532
1515639301,-0.021947,-0.131634,0.027565,0.082977,-0.144686,1.906171
1515639301,-0.010433,-0.091444,-0.027318,-0.039049,-0.122018,1.918997
1515639301,-0.02376,0.067127,-0.070645,-0.027712,-0.195056,1.800377
1515639301,-0.060601,0.194887,-0.02793,-0.067321,-0.312603,1.477933
1515639301,-0.082635,0.260118,-0.05125,-0.084441,-0.222379,1.037999
1515639301,-0.054586,0.23911,0.016259,-0.112166,-0.255318,0.48243
1515639301,-0.024493,0.23407,0.063383,-0.094543,0.005914,0.23083
1515639301,-0.119336,0.092708,0.137037,-0.133217,0.240947,0.129412
1515639301,0.050705,0.077946,0.050129,-0.065085,-0.070837,-0.10102
1515639301,0.061425,0.111325,0.001096,0.017151,-0.17669,-0.111
1515639301,0.020374,-0.010291,0.033582,0.04917,-0.179409,-0.234658
1515639301,0.106159,0.080091,0.000156,-0.024301,-0.101941,-0.348452
1515639301,0.084962,0.113805,-0.022425,-0.105315,-0.12665,-0.44027
1515639301,0.076308,0.154957,-0.046768,-0.198,-0.26335,-0.420607
1515639301,0.042946,0.201146,-0.052645,-0.1791,-0.445211,-0.37229
1515639301,-0.019938,0.20929,-0.014499,-0.159485,-0.473259,-0.14532
1515639301,-0.130121,0.087237,0.039994,-0.050759,-0.436924,0.057434
1515639301,-0.181397,-0.098876,0.084704,0.115292,-0.4776,0.125578
1515639301,-0.216084,-0.108889,0.08232,0.172398,-0.531264,0.012384
1515639301,-0.184741,0.011984,0.00792,0.019933,-0.461688,-0.103611
1515639301,-0.108183,-0.016485,-0.096993,-0.083931,-0.433824,0.008389
1515639301,-0.135416,-0.071934,-0.140235,-0.162207,-0.505951,0.197823
1515639301,-0.15294,-0.024741,-0.143783,-0.228347,-0.622437,0.283678
1515639301,-0.096449,0.002893,-0.149688,-0.343669,-0.629524,0.30385
1515639301,-0.038444,0.011986,-0.167593,-0.440937,-0.626869,0.297419
1515639301,-0.03149,0.014313,-0.136039,-0.387477,-0.627744,0.349679
1515639301,-0.059414,-0.089776,-0.072951,-0.271393,-0.697276,0.348386
1515639301,-0.069202,-0.168123,-0.051475,-0.198796,-0.695578,0.251415
1515639301,-0.118127,-0.008072,-0.038636,-0.224282,-0.499735,0.111466
1515639301,-0.186804,0.192535,-0.045006,-0.272081,-0.204201,0.03907
1515639301,-0.194914,0.136921,0.0045,-0.106917,-0.052082,-0.024202
1515639301,-0.137177,-0.051866,0.072039,0.020918,-0.23413,-0.084571
1515639301,-0.060446,-0.158405,0.02,-0.006511,-0.383021,-0.150211
1515639301,0.029328,-0.184674,0.013889,-0.005001,-0.318173,-0.136091
1515639301,0.058631,-0.181271,0.082546,0.00365,-0.317556,0.079259
1515639301,-0.002981,-0.165333,0.091613,0.013811,-0.250073,0.362044
1515639301,-0.041271,-0.058389,0.177938,0.132202,0.000093,0.550732
1515639301,-0.108781,0.085609,0.317507,0.492787,-0.047938,0.601882
1515639301,-0.073314,0.195622,0.395019,0.823957,-0.595482,0.435667
1515639301,-0.047328,0.244369,0.356362,0.821776,-1.031384,0.376349
1515639301,-0.101473,0.270472,0.259068,0.585852,-1.165558,0.326659
1515639301,-0.128328,0.340684,0.228553,0.393182,-1.132565,0.29685
1515639301,-0.169985,0.317571,0.243974,0.283715,-1.087317,0.238349
1515639301,-0.172159,0.26524,0.252495,0.198667,-1.024938,0.184189
1515639301,-0.143831,0.185589,0.229668,0.029067,-0.950197,0.09166
1515639301,-0.053008,0.15015,0.161693,-0.18852,-0.67641,-0.201582
1515639301,0.062893,0.191399,0.107581,-0.514439,-0.572658,-0.34417
1515639301,0.002871,0.217705,-0.007855,-0.856727,-0.532241,-0.27381
1515639301,-0.042408,0.20808,-0.083002,-1.175332,-0.722718,-0.092429
1515639301,-0.081507,0.170587,-0.133273,-1.373631,-0.983504,-0.020011
1515639301,-0.048147,0.137952,-0.080818,-1.486756,-1.110532,-0.100531
1515639301,-0.009455,0.088035,-0.014102,-1.541917,-1.156364,-0.195622
1515639301,-0.013319,0.065963,-0.008801,-1.551948,-1.226461,-0.263071
1515639301,0.004153,0.059185,-0.055623,-1.541835,-1.279478,-0.306988
1515639301,0.04557,0.04387,-0.118587,-1.52382,-1.265503,-0.321845
1515639301,0.09914,0.025308,-0.163406,-1.472442,-1.165241,-0.322485
1515639301,0.141298,0.009929,-0.182618,-1.363219,-0.968973,-0.317387
1515639301,0.173221,-0.0241,-0.190035,-1.260924,-0.721639,-0.327007
1515639301,0.187504,-0.084856,-0.202735,-1.178846,-0.485006,-0.347334
1515639301,0.179538,-0.147531,-0.206291,-1.142723,-0.246517,-0.37621
1515639301,0.161923,-0.189291,-0.191685,-1.123468,-0.031504,-0.416917
1515639301,0.153002,-0.211616,-0.173751,-1.067972,0.191215,-0.476764
1515639301,0.15631,-0.220003,-0.153453,-0.958629,0.36963,-0.561282
1515639302,0.166556,-0.23351,-0.139291,-0.807499,0.535558,-0.660755
1515639302,0.171287,-0.261279,-0.124659,-0.640103,0.678132,-0.736861
1515639302,0.181121,-0.301872,-0.115688,-0.476816,0.804696,-0.798108
1515639302,0.199514,-0.330057,-0.116657,-0.326759,0.864162,-0.851102
1515639302,0.21257,-0.351272,-0.115662,-0.219586,0.939281,-0.878468
1515639302,0.223587,-0.351184,-0.099663,-0.137502,0.958903,-0.883681
1515639302,0.227094,-0.348751,-0.099011,-0.054748,0.910437,-0.874241
1515639302,0.224464,-0.338826,-0.09502,0.036607,0.856676,-0.846692
1515639302,0.214875,-0.330703,-0.099123,0.119928,0.750758,-0.82469
1515639302,0.194413,-0.335158,-0.126652,0.135705,0.668884,-0.79303
1515639302,0.180101,-0.334367,-0.141465,0.105356,0.604845,-0.767716
1515639302,0.183046,-0.325806,-0.140872,0.057977,0.534313,-0.737106
1515639302,0.192521,-0.310078,-0.114033,0.050066,0.4704,-0.710714
1515639302,0.185702,-0.280129,-0.058293,0.069787,0.422548,-0.657591
1515639302,0.152701,-0.230964,0.025159,0.148274,0.377077,-0.57245
1515639302,0.083077,-0.152296,0.11483,0.196844,0.334503,-0.439342
1515639302,-0.004979,-0.066438,0.1615,0.108809,0.272116,-0.350084
1515639302,-0.104511,0.014738,0.180523,-0.160285,0.361086,-0.401025
1515639302,-0.216662,0.072617,0.218231,-0.387455,0.747251,-0.562693
1515639302,-0.297228,0.131673,0.235963,-0.261929,1.125813,-0.699704
1515639302,-0.3161,0.154958,0.224374,0.113836,1.271527,-0.695742
1515639302,-0.268309,0.105942,0.199312,0.485801,1.157407,-0.549973
1515639302,-0.148711,-0.000862,0.131765,0.718969,0.924351,-0.358904
1515639302,0.014351,-0.155389,0.077084,0.839145,0.771522,-0.186754
1515639302,0.142769,-0.285406,0.092256,0.91139,0.714072,0.007075
1515639302,0.157969,-0.308769,0.132354,1.016178,0.71841,0.227815
1515639302,0.102496,-0.269647,0.182634,1.124268,0.820652,0.437227
1515639302,0.026044,-0.192305,0.237584,1.169362,1.024722,0.613974
1515639302,-0.092317,0.006531,0.301345,1.070251,1.224781,0.777839
1515639302,-0.298999,0.448009,0.339674,0.775362,1.332582,0.801587
1515639302,-0.603488,1.135778,0.272967,0.297441,1.027087,0.653016
1515639302,-0.935385,1.681938,0.021218,0.014124,-0.044631,0.754119
1515639302,-1.076187,1.599087,0.072539,0.003319,-1.339197,0.870453
1515639302,-0.620637,0.842693,0.309683,0.121966,-2.338749,0.655419
1515639302,0.176428,0.114695,0.268444,0.361196,-2.009331,0.434045
1515639302,0.612852,-0.209083,-0.014403,0.434377,-0.976967,0.263384
1515639302,0.741348,-0.353606,-0.308266,0.411062,0.094975,0.2197
1515639302,0.714632,-0.44688,-0.346867,0.501989,0.959048,0.213615
1515639302,0.613658,-0.483365,-0.275549,0.691133,1.503599,0.198833
1515639302,0.504882,-0.470978,-0.210544,0.926649,1.78371,0.139302
1515639302,0.416387,-0.385795,-0.173229,1.16048,1.909545,0.109001
1515639302,0.3427,-0.233589,-0.180299,1.311891,1.833791,0.134357
1515639302,0.270893,-0.099569,-0.184366,1.355937,1.702086,0.173294
1515639302,0.201123,-0.022017,-0.167625,1.31075,1.629294,0.266793
1515639302,0.136333,0.04184,-0.147754,1.174048,1.521751,0.449661
1515639302,0.067275,0.107613,-0.123272,0.979395,1.332951,0.675884
1515639302,-0.011474,0.152209,-0.088927,0.738845,1.135538,0.833822
1515639302,-0.079475,0.191401,-0.014919,0.485077,1.079851,0.837746
1515639302,-0.119039,0.213939,0.072765,0.322388,1.208021,0.649488
1515639302,-0.14258,0.192605,0.109684,0.324707,1.284197,0.363024
1515639302,-0.19781,0.139593,0.072206,0.440331,1.138712,0.091712
1515639302,-0.261055,0.072127,0.01201,0.548266,0.909005,-0.110648
1515639302,-0.281526,-0.007011,-0.037344,0.586441,0.713833,-0.238275
1515639302,-0.244737,-0.079397,-0.06462,0.567349,0.588311,-0.271836
1515639302,-0.17615,-0.123195,-0.076351,0.527947,0.467799,-0.221166
1515639302,-0.114852,-0.131929,-0.089692,0.464919,0.361931,-0.125676
1515639302,-0.067114,-0.123097,-0.107324,0.387614,0.295335,-0.028968
1515639302,-0.025047,-0.108528,-0.125716,0.315124,0.281973,0.053032
1515639302,0.009986,-0.084809,-0.14075,0.271161,0.300727,0.113852
1515639302,0.037083,-0.045102,-0.144011,0.261382,0.318669,0.1555
1515639302,0.060179,0.002746,-0.139054,0.266555,0.337764,0.189693
1515639302,0.081037,0.047364,-0.127659,0.273018,0.33352,0.192873
1515639302,0.093976,0.074555,-0.113348,0.261038,0.356843,0.195093
1515639302,0.105907,0.08041,-0.097753,0.241448,0.391866,0.1867
1515639302,0.119131,0.076823,-0.092285,0.219717,0.428951,0.192169
1515639302,0.125904,0.064569,-0.087422,0.211789,0.475667,0.204079
1515639302,0.127767,0.052734,-0.089756,0.20589,0.534059,0.233094
1515639302,0.119083,0.038786,-0.088876,0.177109,0.639059,0.28254
1515639302,0.101655,0.02529,-0.094181,0.148617,0.713274,0.311608
1515639302,0.079715,0.008591,-0.100202,0.128588,0.795019,0.326853
1515639302,0.060224,-0.014025,-0.088579,0.122369,0.884336,0.317614
1515639302,0.043711,-0.018737,-0.073798,0.11508,0.974681,0.315838
1515639302,0.02982,-0.01456,-0.053246,0.10667,1.071341,0.346071
1515639302,0.019943,-0.012623,-0.027451,0.082773,1.112594,0.392071
1515639302,0.011739,-0.012805,-0.008835,0.032738,1.09725,0.466611
1515639302,0.002508,-0.017821,0.006132,-0.027302,1.012725,0.534468
1515639302,-0.012695,-0.026215,0.019385,-0.088344,0.920754,0.606563
1515639302,-0.040176,-0.040399,0.018551,-0.131367,0.842764,0.654203
1515639302,-0.078519,-0.033695,0.008541,-0.160825,0.797829,0.698784
1515639302,-0.132912,-0.026148,-0.006516,-0.168013,0.76799,0.714655
1515639302,-0.183502,-0.014718,-0.024844,-0.15197,0.764959,0.6848
1515639302,-0.227724,-0.00338,-0.041162,-0.121206,0.785457,0.630526
1515639302,-0.26832,-0.003913,-0.048358,-0.095172,0.852712,0.582835
1515639302,-0.295485,-0.005652,-0.03787,-0.055314,0.925418,0.511719
1515639302,-0.294333,-0.005435,-0.016534,-0.02369,0.966171,0.440471
1515639302,-0.271399,-0.010966,0.003224,-0.003067,0.931306,0.384901
1515639302,-0.230072,-0.015597,0.028505,0.007467,0.835729,0.351475
1515639302,-0.183766,-0.024696,0.060863,-0.006224,0.704858,0.357346
1515639302,-0.149802,-0.028267,0.089695,-0.058161,0.554514,0.400427
1515639302,-0.137497,-0.023857,0.116829,-0.133535,0.399677,0.48292
1515639302,-0.155882,-0.021114,0.137159,-0.230605,0.278705,0.591128
1515639302,-0.19725,-0.033135,0.14876,-0.343088,0.203389,0.699516
1515639302,-0.258149,-0.040151,0.145412,-0.458236,0.181287,0.776129
1515639302,-0.323571,-0.038915,0.140624,-0.558196,0.244419,0.810443
1515639302,-0.392114,-0.046671,0.144019,-0.615823,0.34619,0.80656
1515639302,-0.456625,-0.058938,0.154916,-0.677939,0.469235,0.7889
1515639302,-0.496263,-0.077515,0.152306,-0.765905,0.503868,0.769808
1515639302,-0.517373,-0.110287,0.117673,-0.889947,0.401169,0.73203
1515639302,-0.519513,-0.13144,0.036116,-1.037385,0.064576,0.595218
1515639303,-0.488734,-0.102264,-0.104396,-1.16399,-0.442803,0.321275
1515639303,-0.451687,0.043993,-0.202009,-1.145163,-0.749126,-0.083986
1515639303,-0.382402,0.266953,-0.155279,-0.826551,-0.79397,-0.620255
1515639303,-0.200544,0.310507,-0.038009,-0.519051,-0.795302,-1.135027
1515639303,0.108162,0.107926,-0.018943,-0.504102,-0.912847,-1.315656
1515639303,0.303466,-0.081054,-0.046272,-0.644808,-1.154537,-1.07576
1515639303,0.443856,-0.074033,-0.041679,-0.821417,-1.652995,-0.716444
1515639303,0.521541,0.085915,-0.043291,-1.01984,-2.224536,-0.546127
1515639303,0.383479,0.253124,-0.007788,-1.203673,-2.434242,-0.444709
1515639303,0.179973,0.402696,0.035428,-1.285268,-2.39431,-0.439257
1515639303,0.041085,0.517842,0.056514,-1.337436,-2.196702,-0.491797
1515639303,-0.04537,0.573066,0.051078,-1.437504,-1.90897,-0.538664
1515639303,-0.070084,0.596373,0.026399,-1.588179,-1.581138,-0.577932
1515639303,-0.061184,0.588131,-0.01238,-1.730136,-1.269282,-0.582079
1515639303,-0.053236,0.515568,-0.052535,-1.852217,-1.020194,-0.524635
1515639303,-0.03211,0.407189,-0.064274,-1.891668,-0.915325,-0.441079
1515639303,0.001045,0.31802,-0.04513,-1.829386,-0.941789,-0.336681
1515639303,0.035467,0.227759,-0.021493,-1.703109,-0.957209,-0.251397
1515639303,0.081178,0.154999,-0.024024,-1.55863,-0.978798,-0.214102
1515639303,0.132548,0.105666,-0.072924,-1.456706,-1.021791,-0.224887
1515639303,0.200433,0.070083,-0.138494,-1.412755,-1.038471,-0.256912
1515639303,0.281637,0.030825,-0.192475,-1.420034,-1.061779,-0.314577
1515639303,0.3386,-0.024154,-0.22251,-1.388994,-1.071013,-0.379627
1515639303,0.354099,-0.083504,-0.236026,-1.341646,-1.107835,-0.436254
1515639303,0.33806,-0.125277,-0.259736,-1.278121,-1.159461,-0.496134
1515639303,0.301828,-0.156683,-0.285612,-1.20339,-1.155707,-0.555784
1515639303,0.258672,-0.192855,-0.301933,-1.138915,-1.087103,-0.636501
1515639303,0.206481,-0.224755,-0.315993,-1.076819,-0.994046,-0.716054
1515639303,0.16389,-0.250404,-0.319475,-1.015193,-0.853137,-0.792215
1515639303,0.14841,-0.268406,-0.307899,-0.931332,-0.689824,-0.84589
1515639303,0.15362,-0.278186,-0.282854,-0.797727,-0.585828,-0.88379
1515639303,0.174696,-0.270822,-0.24941,-0.634936,-0.516747,-0.921815
1515639303,0.194845,-0.260032,-0.215649,-0.453364,-0.401835,-0.948981
1515639303,0.211664,-0.249403,-0.18033,-0.282368,-0.188084,-0.983222
1515639303,0.239156,-0.22782,-0.147643,-0.132839,0.035141,-1.032363
1515639303,0.259267,-0.208932,-0.119611,-0.019177,0.210328,-1.088108
1515639303,0.258925,-0.199513,-0.089644,0.06828,0.334279,-1.12488
1515639303,0.231359,-0.198188,-0.069837,0.139447,0.376227,-1.153462
1515639303,0.186797,-0.195752,-0.081079,0.188676,0.367009,-1.187592
1515639303,0.134064,-0.197855,-0.096089,0.235056,0.321594,-1.209073
1515639303,0.083991,-0.208267,-0.102668,0.335617,0.310402,-1.171754
1515639303,0.057195,-0.217029,-0.092364,0.448444,0.35975,-1.07449
1515639303,0.074299,-0.223131,-0.084662,0.513984,0.329012,-0.95625
1515639303,0.130381,-0.249297,-0.056813,0.629736,0.190065,-0.824559
1515639303,0.205562,-0.270184,-0.019937,0.687099,0.013511,-0.67386
1515639303,0.284344,-0.266237,-0.017009,0.69514,-0.149337,-0.592422
1515639303,0.32868,-0.263798,-0.019366,0.667322,-0.144256,-0.552967
1515639303,0.350386,-0.24377,-0.029876,0.662065,-0.043274,-0.545102
1515639303,0.356231,-0.203003,-0.058364,0.715116,0.105864,-0.526357
1515639303,0.354897,-0.170451,-0.09275,0.760171,0.306075,-0.535127
1515639303,0.3454,-0.145674,-0.058355,0.655676,0.612774,-0.517957
1515639303,0.346426,-0.079662,0.055469,0.386825,0.904467,-0.392184
1515639303,0.327961,0.042207,0.188361,0.056942,0.989519,-0.270464
1515639303,0.214236,0.190223,0.309297,-0.346597,1.173225,-0.231541
1515639303,0.016393,0.329791,0.443526,-0.676369,1.458557,-0.271064
1515639303,-0.155141,0.440435,0.478046,-0.409344,1.365197,-0.163638
1515639303,-0.201848,0.446407,0.327121,0.083013,1.174288,-0.088482
1515639303,-0.143781,0.311732,0.166437,0.423373,1.338757,-0.002374
1515639303,-0.052771,-0.027268,0.053228,0.610815,1.517135,0.140224
1515639303,0.055752,-0.300555,-0.027018,0.746329,1.648587,0.198384
1515639303,0.130684,-0.394688,-0.02497,0.904111,1.689718,0.276445
1515639303,0.127652,-0.409556,0.009629,1.097369,1.603245,0.443563
1515639303,0.083711,-0.393079,0.0494,1.305585,1.411426,0.665696
1515639303,0.025228,-0.344691,0.084052,1.500378,1.170629,0.89083
1515639303,-0.037987,-0.271117,0.108792,1.632865,0.96146,1.090482
1515639303,-0.095812,-0.192697,0.134578,1.64171,0.830307,1.266928
1515639303,-0.143996,-0.072114,0.163165,1.513861,0.800491,1.424522
1515639303,-0.211806,0.234685,0.188044,1.147583,0.890737,1.502534
1515639303,-0.38908,0.94238,0.102556,0.172519,0.940821,1.344497
1515639303,-0.80365,1.859051,-0.219073,-0.507613,0.86869,0.947305
1515639303,-1.322824,2.302167,0.042159,-0.382808,0.320638,0.483557
1515639303,-1.393793,1.670217,0.528565,-0.197833,-1.911183,-0.168151
1515639303,-0.725487,0.505737,0.628384,0.58524,-2.559309,-0.329225
1515639303,0.017931,-0.028762,0.306931,1.060846,-1.695211,-0.311673
1515639303,0.563768,-0.154827,-0.251237,0.890092,-0.081586,-0.424681
1515639303,0.862154,-0.324894,-0.547573,0.579898,1.365449,-0.588529
1515639303,0.942216,-0.603477,-0.542881,0.548168,2.099015,-0.572811
1515639303,0.925036,-0.727724,-0.399929,0.797722,2.156428,-0.402956
1515639303,0.88384,-0.598107,-0.261917,1.029791,2.042173,-0.074952
1515639303,0.826806,-0.416013,-0.187807,1.002905,1.860345,0.317687
1515639303,0.768625,-0.291494,-0.152007,0.841462,1.777809,0.669084
1515639303,0.658091,-0.198357,-0.118712,0.69363,1.717962,0.894781
1515639303,0.482114,-0.112094,-0.086437,0.629689,1.600208,1.072311
1515639303,0.259161,-0.025024,-0.040917,0.646524,1.417999,1.273075
1515639303,0.059945,0.095288,-0.001022,0.647086,1.150666,1.451102
1515639303,-0.090052,0.238997,0.045059,0.592305,0.85458,1.507456
1515639303,-0.20185,0.368607,0.120101,0.398252,0.693287,1.335083
1515639303,-0.297165,0.434206,0.177947,0.171149,0.73429,0.966278
1515639303,-0.402795,0.351519,0.1507,0.092531,0.776282,0.537849
1515639303,-0.503049,0.169631,0.054222,0.283513,0.568696,0.17251
1515639303,-0.554915,0.005806,-0.049531,0.611758,0.315944,-0.101267
1515639303,-0.521854,-0.098646,-0.097183,0.76304,0.352342,-0.295074
1515639303,-0.429163,-0.158055,-0.104978,0.701882,0.482988,-0.372399
1515639303,-0.298636,-0.191965,-0.10821,0.552355,0.476789,-0.361834
1515639303,-0.150323,-0.201026,-0.08272,0.393206,0.366132,-0.276005
1515639303,-0.032118,-0.188755,-0.051435,0.262147,0.224737,-0.158301
1515639303,0.063333,-0.148365,-0.038393,0.198101,0.113539,-0.054301
1515639303,0.139491,-0.078711,-0.047039,0.209474,0.046453,0.013664
1515639303,0.197256,0.0145,-0.072762,0.25467,0.014758,0.039146
1515639303,0.238894,0.090043,-0.095771,0.30381,0.017114,0.062632
1515639304,0.262192,0.108908,-0.104159,0.32175,0.042627,0.112848
1515639304,0.283104,0.092742,-0.100018,0.31289,0.077531,0.174816
1515639304,0.288186,0.074604,-0.085782,0.278256,0.12713,0.251753
1515639304,0.2651,0.066873,-0.069331,0.208347,0.1776,0.329746
1515639304,0.220349,0.060901,-0.067625,0.134157,0.228071,0.397076
1515639304,0.161508,0.061293,-0.057429,0.066056,0.310529,0.442149
1515639304,0.094877,0.064685,-0.037956,0.013677,0.422915,0.462832
1515639304,0.028171,0.061346,-0.021798,-0.017207,0.521647,0.460015
1515639304,-0.032473,0.054885,-0.019111,-0.021822,0.554664,0.430297
1515639304,-0.067618,0.0415,-0.015489,-0.017528,0.550529,0.388706
1515639304,-0.078524,0.011172,-0.019189,-0.02165,0.532538,0.339593
1515639304,-0.059129,-0.018603,-0.032623,-0.050615,0.543064,0.314036
1515639304,-0.022708,-0.033422,-0.046717,-0.073493,0.588649,0.314204
1515639304,0.01594,-0.040146,-0.054668,-0.075418,0.677896,0.346544
1515639304,0.049531,-0.040177,-0.055721,-0.061365,0.772516,0.404503
1515639304,0.070825,-0.041939,-0.049583,-0.039618,0.846919,0.477305
1515639304,0.073838,-0.054319,-0.038248,-0.008878,0.876673,0.563789
1515639304,0.06259,-0.071956,-0.022985,0.028784,0.853325,0.638339
1515639304,0.038366,-0.082596,-0.007858,0.054626,0.836316,0.699048
1515639304,-0.006181,-0.077565,-0.003579,0.069872,0.808672,0.73519
1515639304,-0.066402,-0.064663,-0.012216,0.081956,0.775741,0.746789
1515639304,-0.131551,-0.048565,-0.023147,0.10977,0.77168,0.731861
1515639304,-0.194421,-0.030133,-0.02424,0.144498,0.825095,0.717169
1515639304,-0.251244,-0.019058,-0.027693,0.15983,0.894396,0.67801
1515639304,-0.283889,-0.021943,-0.035673,0.153696,0.972141,0.614355
1515639304,-0.29696,-0.035111,-0.02339,0.133434,1.074264,0.549725
1515639304,-0.301109,-0.048584,0.005568,0.11674,1.140205,0.505207
1515639304,-0.299829,-0.057059,0.036758,0.089092,1.12522,0.477416
1515639304,-0.290699,-0.052684,0.06778,0.042125,1.011159,0.474802
1515639304,-0.279206,-0.028927,0.102587,0.00496,0.770508,0.516462
1515639304,-0.272501,-0.00271,0.145544,-0.019912,0.475644,0.581365
1515639304,-0.266152,0.020932,0.192943,-0.032244,0.209571,0.641058
1515639304,-0.267531,0.029658,0.251485,-0.047754,0.050862,0.71184
1515639304,-0.275849,0.019831,0.30541,-0.099588,0.000436,0.776643
1515639304,-0.286031,-0.004434,0.340024,-0.200062,0.007175,0.824591
1515639304,-0.315309,-0.043356,0.353259,-0.355017,0.011499,0.871441
1515639304,-0.37106,-0.086837,0.326945,-0.597236,-0.021863,0.911709
1515639304,-0.441242,-0.111961,0.232807,-0.917345,-0.178881,0.87468
1515639304,-0.482147,-0.086958,0.056637,-1.231651,-0.502367,0.631234
1515639304,-0.483773,0.034579,-0.107586,-1.342753,-0.856077,0.159624
1515639304,-0.470836,0.274201,-0.136594,-1.106011,-0.944903,-0.409904
1515639304,-0.386221,0.460969,-0.009935,-0.78805,-0.816315,-0.976387
1515639304,-0.11462,0.35019,0.021092,-0.831536,-0.974321,-1.283002
1515639304,0.125101,0.069191,-0.047377,-1.095733,-1.268565,-1.160644
1515639304,0.269115,-0.031484,-0.023144,-1.397834,-1.722858,-0.90249
1515639304,0.301299,0.086027,-0.013333,-1.627895,-2.228605,-0.750047
1515639304,0.136652,0.224471,0.022284,-1.80057,-2.377599,-0.669706
1515639304,-0.062684,0.361516,0.053034,-1.89846,-2.203638,-0.720226
1515639304,-0.191074,0.495329,0.017156,-1.852853,-1.955341,-0.832213
1515639304,-0.234481,0.594569,-0.068786,-1.776353,-1.695277,-0.894032
1515639304,-0.192429,0.675431,-0.160848,-1.740785,-1.5069,-0.861274
1515639304,-0.070296,0.681406,-0.246693,-1.787408,-1.430907,-0.723468
1515639304,0.082749,0.566634,-0.28692,-1.916977,-1.503289,-0.554316
1515639304,0.200147,0.44552,-0.269438,-2.009382,-1.6626,-0.410013
1515639304,0.259753,0.360765,-0.215554,-1.998058,-1.723367,-0.313238
1515639304,0.281125,0.276292,-0.150693,-1.938059,-1.629489,-0.290445
1515639304,0.265349,0.168494,-0.106386,-1.875174,-1.507721,-0.366684
1515639304,0.235909,0.089157,-0.08688,-1.8143,-1.401783,-0.502687
1515639304,0.223706,0.038541,-0.084789,-1.740271,-1.221284,-0.659708
1515639304,0.242692,-0.010656,-0.101267,-1.649887,-0.965175,-0.818548
1515639304,0.27004,-0.050475,-0.145112,-1.526522,-0.803538,-0.973488
1515639304,0.283702,-0.084113,-0.20061,-1.37585,-0.809876,-1.081116
1515639304,0.291138,-0.10447,-0.246075,-1.213899,-0.765209,-1.143759
1515639304,0.312621,-0.123265,-0.274958,-1.061576,-0.718518,-1.182944
1515639304,0.321911,-0.166275,-0.312132,-0.919166,-0.750606,-1.205389
1515639304,0.31837,-0.215961,-0.330351,-0.810302,-0.738262,-1.214883
1515639304,0.316603,-0.2614,-0.326839,-0.733955,-0.678265,-1.218871
1515639304,0.31425,-0.300815,-0.313363,-0.667556,-0.584297,-1.219528
1515639304,0.303796,-0.330086,-0.285458,-0.590612,-0.476445,-1.213725
1515639304,0.28748,-0.346143,-0.243676,-0.492665,-0.329183,-1.187502
1515639304,0.26726,-0.340683,-0.196329,-0.384693,-0.22233,-1.143316
1515639304,0.247269,-0.311528,-0.157377,-0.283515,-0.184699,-1.067426
1515639304,0.230416,-0.275125,-0.135186,-0.197633,-0.22264,-0.999308
1515639304,0.218673,-0.247607,-0.124891,-0.122333,-0.272277,-0.961092
1515639304,0.214656,-0.231948,-0.115178,-0.050213,-0.326101,-0.966607
1515639304,0.202529,-0.224359,-0.112541,0.023054,-0.38944,-0.988148
1515639304,0.182602,-0.211693,-0.111506,0.092817,-0.421983,-0.992506
1515639304,0.164191,-0.193291,-0.113476,0.137278,-0.379196,-0.989115
1515639304,0.157139,-0.174258,-0.11515,0.148899,-0.25578,-0.986484
1515639304,0.153282,-0.170775,-0.109679,0.177547,-0.125866,-0.989147
1515639304,0.150694,-0.174082,-0.075333,0.251764,0.043615,-0.972441
1515639304,0.14555,-0.177136,-0.020911,0.357367,0.175887,-0.88231
1515639304,0.147529,-0.188545,0.018352,0.468062,0.224181,-0.792512
1515639304,0.162732,-0.211486,0.039805,0.570875,0.205386,-0.684865
1515639304,0.194419,-0.244369,0.025391,0.668291,0.191886,-0.580398
1515639304,0.227793,-0.260117,-0.020104,0.761111,0.210317,-0.500324
1515639304,0.241956,-0.269599,-0.072092,0.872834,0.263902,-0.406246
1515639304,0.252261,-0.279624,-0.094717,1.001168,0.366516,-0.310892
1515639304,0.262452,-0.286221,-0.096182,1.147408,0.495797,-0.19943
1515639304,0.2672,-0.287519,-0.078057,1.296967,0.614434,-0.081615
1515639304,0.265716,-0.271239,-0.025928,1.372882,0.724164,0.022269
1515639304,0.239138,-0.215795,0.058817,1.3007,0.901029,0.164731
1515639304,0.171692,-0.091745,0.16249,1.084367,0.956936,0.299184
1515639304,0.040571,0.059214,0.259179,0.805083,0.890378,0.337163
1515639304,-0.144344,0.188152,0.320786,0.503172,0.731294,0.311857
1515639304,-0.317232,0.297964,0.322873,0.393498,0.47127,0.271317
1515639304,-0.375937,0.361005,0.279102,0.678711,0.152751,0.292562
1515639304,-0.252761,0.286072,0.197217,1.048383,0.053539,0.426665
1515639304,-0.028933,0.030859,0.113771,1.220597,0.149973,0.546535
1515639305,0.115283,-0.280607,0.06564,1.295491,0.252358,0.607747
1515639305,0.169137,-0.438886,0.013746,1.352873,0.396169,0.64673
1515639305,0.196344,-0.417153,-0.01542,1.477929,0.615735,0.746816
1515639305,0.215436,-0.132907,0.05925,1.51309,0.968369,1.024356
1515639305,0.072329,0.748011,0.042057,0.498597,1.012699,0.951559
1515639305,-0.452111,2.217141,-0.557289,-0.328731,0.901968,0.329206
1515639305,-1.135045,3.091678,-0.074201,-0.334536,0.295633,0.384339
1515639305,-1.115672,2.424513,0.910817,-0.531184,-1.010472,0.428044
1515639305,-0.157263,0.740346,0.97578,-0.134233,-1.20053,-0.113028
1515639305,0.443164,-0.089296,0.296693,0.146554,-0.75777,-0.506635
1515639305,0.694554,-0.375996,-0.372915,0.115883,0.192859,-0.534818
1515639305,0.834001,-0.593246,-0.688153,0.051062,1.587328,-0.340558
1515639305,0.848645,-0.72787,-0.74154,0.240006,2.49085,-0.141752
1515639305,0.771031,-0.705851,-0.717188,0.671911,2.585472,0.026207
1515639305,0.629334,-0.606904,-0.62115,1.065911,2.406451,0.244221
1515639305,0.48701,-0.486608,-0.492886,1.285052,2.079646,0.474353
1515639305,0.370069,-0.339982,-0.355674,1.267298,1.719627,0.680785
1515639305,0.236497,-0.126192,-0.200268,0.995308,1.348737,0.817757
1515639305,0.011056,0.117728,-0.103238,0.838317,1.015864,0.893104
1515639305,-0.209621,0.232365,-0.102928,0.899406,0.675615,1.015429
1515639305,-0.348589,0.281101,-0.073853,0.897432,0.33713,1.144132
1515639305,-0.409798,0.331396,0.00334,0.81968,0.096181,1.215621
1515639305,-0.380857,0.329144,0.069721,0.716881,-0.108211,1.045247
1515639305,-0.260664,0.245542,0.13469,0.630933,-0.077098,0.705253
1515639305,-0.159599,0.092662,0.202133,0.552638,0.154038,0.344745
1515639305,-0.181799,-0.056882,0.197194,0.629321,0.163692,0.040995
1515639305,-0.261402,-0.165441,0.112323,0.846335,0.036581,-0.103332
1515639305,-0.289554,-0.224293,0.009308,0.923583,0.000041,-0.223916
1515639305,-0.270516,-0.244267,-0.043648,0.840353,-0.016179,-0.316769
1515639305,-0.218639,-0.246315,-0.045243,0.742924,-0.107109,-0.312908
1515639305,-0.132862,-0.2068,-0.022101,0.658025,-0.27056,-0.2006
1515639305,-0.044957,-0.145864,-0.010337,0.576983,-0.388375,-0.046536
1515639305,0.027198,-0.083516,-0.025744,0.50858,-0.37952,0.097387
1515639305,0.089643,-0.011946,-0.057292,0.462117,-0.322558,0.189277
1515639305,0.146703,0.069678,-0.092625,0.43424,-0.311097,0.223424
1515639305,0.199514,0.157525,-0.11618,0.405842,-0.356997,0.224291
1515639305,0.24947,0.223796,-0.115604,0.349948,-0.431791,0.237824
1515639305,0.286848,0.247598,-0.091445,0.25705,-0.436657,0.275073
1515639305,0.304479,0.217831,-0.051014,0.139737,-0.348098,0.319082
1515639305,0.298357,0.149062,-0.029598,0.029627,-0.231809,0.342948
1515639305,0.262131,0.070644,-0.037384,-0.049171,-0.149356,0.363496
1515639305,0.212749,0.016227,-0.053314,-0.113815,-0.093437,0.401005
1515639305,0.165426,-0.016177,-0.067495,-0.169847,-0.04283,0.453419
1515639305,0.121256,-0.031754,-0.066663,-0.19491,0.009047,0.491993
1515639305,0.072418,-0.013782,-0.054594,-0.178683,0.098451,0.500888
1515639305,0.024732,0.014923,-0.042596,-0.137252,0.231672,0.474788
1515639305,-0.017978,0.040438,-0.036515,-0.05922,0.335395,0.421938
1515639305,-0.057107,0.059327,-0.047513,0.035583,0.361626,0.357062
1515639305,-0.101743,0.046682,-0.075636,0.122835,0.28574,0.275778
1515639305,-0.138416,-0.000898,-0.098333,0.168086,0.245691,0.223397
1515639305,-0.135351,-0.048985,-0.112911,0.167864,0.267021,0.195765
1515639305,-0.106154,-0.07784,-0.129278,0.149451,0.291403,0.191594
1515639305,-0.083816,-0.097145,-0.138671,0.127902,0.310388,0.206585
1515639305,-0.069799,-0.106403,-0.137438,0.121233,0.337949,0.22908
1515639305,-0.058928,-0.099253,-0.135606,0.131556,0.376236,0.254824
1515639305,-0.052342,-0.083144,-0.130243,0.162136,0.419934,0.284861
1515639305,-0.055563,-0.065556,-0.117985,0.194716,0.477461,0.323486
1515639305,-0.070207,-0.050501,-0.10037,0.230653,0.519072,0.357786
1515639305,-0.087261,-0.037059,-0.071208,0.254073,0.638275,0.375333
1515639305,-0.097417,-0.028423,-0.029728,0.254901,0.773316,0.376936
1515639305,-0.102868,-0.023663,0.007913,0.22585,0.902909,0.369979
1515639305,-0.105119,-0.020162,0.042692,0.178166,0.969671,0.3713
1515639305,-0.111312,-0.013499,0.065673,0.129381,0.933183,0.393518
1515639305,-0.1294,-0.011698,0.06958,0.088248,0.772219,0.448284
1515639305,-0.154755,-0.019294,0.060084,0.059559,0.540077,0.511303
1515639305,-0.174015,-0.023957,0.052799,0.04879,0.333535,0.585094
1515639305,-0.193454,-0.027024,0.044025,0.050425,0.169613,0.654798
1515639305,-0.213853,-0.03454,0.039538,0.04611,0.066332,0.703424
1515639305,-0.226945,-0.033931,0.03992,0.030775,-0.00296,0.738319
1515639305,-0.24693,-0.02851,0.050668,-0.000925,-0.037247,0.762681
1515639305,-0.268811,-0.022326,0.073332,-0.038138,-0.05557,0.776449
1515639305,-0.289577,-0.020715,0.100015,-0.079687,-0.06857,0.783844
1515639305,-0.312565,-0.026869,0.127712,-0.11465,-0.099589,0.774108
1515639305,-0.338456,-0.039348,0.147097,-0.147785,-0.098698,0.763433
1515639305,-0.362628,-0.051142,0.159074,-0.172182,-0.117934,0.743089
1515639305,-0.377955,-0.071201,0.164665,-0.182696,-0.136044,0.728086
1515639305,-0.389639,-0.081801,0.17865,-0.194787,-0.101043,0.738881
1515639305,-0.403547,-0.083989,0.188476,-0.214837,-0.126694,0.747299
1515639305,-0.419008,-0.083138,0.188567,-0.26356,-0.169557,0.767359
1515639305,-0.433955,-0.093596,0.172673,-0.350815,-0.316788,0.755
1515639305,-0.427404,-0.10368,0.105989,-0.500334,-0.657715,0.64802
1515639305,-0.392977,-0.074485,-0.01664,-0.649568,-1.14504,0.381608
1515639305,-0.356536,0.066917,-0.117423,-0.653567,-1.520642,-0.013281
1515639305,-0.30499,0.314542,-0.09263,-0.42102,-1.392827,-0.452945
1515639305,-0.114564,0.439316,0.014389,-0.258255,-1.119821,-0.847286
1515639305,0.157243,0.313795,-0.023563,-0.384928,-1.169441,-0.863539
1515639305,0.236813,0.074164,-0.091513,-0.599065,-1.655313,-0.52338
1515639305,0.238116,-0.01241,-0.072045,-0.805435,-2.394036,-0.275915
1515639305,0.18705,0.055697,-0.048561,-1.032618,-2.976305,-0.137637
1515639305,0.014841,0.164079,-0.041678,-1.235161,-3.242322,-0.119614
1515639305,-0.143152,0.356216,-0.027985,-1.345455,-3.115046,-0.249217
1515639305,-0.236379,0.546701,-0.013184,-1.389176,-2.694863,-0.404261
1515639305,-0.286061,0.613078,-0.033715,-1.500403,-2.252828,-0.524073
1515639305,-0.249862,0.577132,-0.082581,-1.655014,-1.962129,-0.611465
1515639305,-0.127242,0.472518,-0.135307,-1.808196,-1.704562,-0.621165
1515639305,-0.00072,0.362005,-0.182511,-1.909932,-1.461661,-0.596784
1515639305,0.096973,0.310408,-0.216529,-1.916932,-1.290549,-0.567317
1515639305,0.163132,0.274964,-0.214339,-1.807401,-1.234717,-0.521198
1515639305,0.202205,0.205638,-0.192895,-1.635268,-1.244399,-0.50623
1515639306,0.209875,0.156848,-0.158852,-1.435076,-1.28364,-0.516953
1515639306,0.187105,0.119634,-0.146979,-1.257393,-1.316587,-0.545785
1515639306,0.18126,0.084729,-0.137533,-1.148233,-1.335034,-0.588456
1515639306,0.195449,0.034897,-0.136279,-1.136308,-1.355056,-0.639702
1515639306,0.199825,-0.035691,-0.139311,-1.186784,-1.332841,-0.711062
1515639306,0.182945,-0.089955,-0.136003,-1.244459,-1.230859,-0.808759
1515639306,0.148527,-0.113086,-0.140881,-1.266844,-1.133904,-0.941637
1515639306,0.108127,-0.116798,-0.172288,-1.237566,-1.074938,-1.077844
1515639306,0.074554,-0.130594,-0.209787,-1.166403,-1.037053,-1.185328
1515639306,0.057765,-0.15739,-0.245664,-1.086354,-1.031125,-1.252429
1515639306,0.052647,-0.188985,-0.289669,-1.004874,-1.06036,-1.290889
1515639306,0.057058,-0.221554,-0.320734,-0.914429,-1.132104,-1.314587
1515639306,0.066977,-0.24722,-0.332286,-0.788068,-1.269619,-1.324676
1515639306,0.074785,-0.255812,-0.330839,-0.644648,-1.40384,-1.332609
1515639306,0.093758,-0.253089,-0.313545,-0.490888,-1.502899,-1.341461
1515639306,0.117002,-0.237737,-0.290977,-0.319723,-1.524224,-1.353192
1515639306,0.132956,-0.208507,-0.267728,-0.135163,-1.495462,-1.374308
1515639306,0.135236,-0.177553,-0.249828,0.03247,-1.484829,-1.418961
1515639306,0.126553,-0.148299,-0.2377,0.161541,-1.464827,-1.474257
1515639306,0.119627,-0.12245,-0.21507,0.235982,-1.431299,-1.533787
1515639306,0.116174,-0.093947,-0.189778,0.256466,-1.341793,-1.56007
1515639306,0.114935,-0.063701,-0.161368,0.226306,-1.206938,-1.545685
1515639306,0.119778,-0.044725,-0.143615,0.182641,-1.111542,-1.504806
1515639306,0.12473,-0.04339,-0.125606,0.153354,-1.065,-1.468386
1515639306,0.125155,-0.058352,-0.086432,0.162835,-1.048066,-1.409681
1515639306,0.134423,-0.083424,-0.035502,0.205696,-1.056505,-1.330805
1515639306,0.156019,-0.095872,0.011839,0.277352,-1.167964,-1.243802
1515639306,0.176359,-0.111595,0.033406,0.373988,-1.321777,-1.170815
1515639306,0.201447,-0.123147,0.037575,0.49759,-1.390442,-1.058026
1515639306,0.234066,-0.122486,0.020312,0.624496,-1.358128,-0.917115
1515639306,0.257083,-0.120225,-0.0086,0.730939,-1.309942,-0.797473
1515639306,0.237935,-0.125793,-0.05251,0.828559,-1.236174,-0.72144
1515639306,0.203648,-0.135075,-0.081527,0.917077,-1.108118,-0.691034
1515639306,0.177273,-0.140606,-0.095328,1.00553,-0.97468,-0.68939
1515639306,0.162427,-0.166397,-0.091032,1.114446,-0.857098,-0.682472
1515639306,0.166107,-0.214121,-0.072587,1.237517,-0.76504,-0.635137
1515639306,0.177279,-0.243946,-0.0619,1.336056,-0.675362,-0.531318
1515639306,0.176854,-0.243072,-0.056448,1.405457,-0.662543,-0.379851
1515639306,0.148052,-0.246478,-0.036559,1.392055,-0.704463,-0.21905
1515639306,0.085136,-0.253213,0.014664,1.245251,-0.765134,-0.096765
1515639306,0.001288,-0.226796,0.05752,1.018637,-0.86331,-0.052492
1515639306,-0.103894,-0.156974,0.058579,0.819615,-1.054765,-0.07361
1515639306,-0.19629,-0.060381,-0.015982,0.695929,-1.411663,-0.099616
1515639306,-0.21969,0.05627,-0.087008,0.665313,-1.888221,-0.122864
1515639306,-0.170449,0.156361,-0.046304,0.806286,-2.209611,-0.140079
1515639306,-0.062826,0.160471,0.043523,1.113005,-2.216305,-0.16448
1515639306,0.062937,0.057586,0.047035,1.45418,-2.031371,-0.191293
1515639306,0.176519,-0.076768,-0.032184,1.767744,-1.75511,-0.230547
1515639306,0.257522,-0.163926,-0.103358,2.0498,-1.532306,-0.229522
1515639306,0.272223,-0.183916,-0.183228,2.223278,-1.457075,-0.137455
1515639306,0.258191,-0.093826,-0.234105,2.272706,-1.367846,0.038831
1515639306,0.216382,0.186453,-0.159384,2.367828,-1.135157,0.374557
1515639306,0.084202,0.783704,-0.013839,2.259568,-1.187828,0.817778
1515639306,-0.024332,1.801688,-0.169699,1.446497,-1.95119,1.015817
1515639306,-0.027113,2.653232,-0.255119,0.849046,-2.479091,1.102968
1515639306,0.039549,2.4272,0.152897,0.635283,-3.028669,0.925826
1515639306,0.390314,1.06528,0.157492,0.619365,-2.739278,0.351297
1515639306,0.605396,0.107308,0.013483,0.576601,-1.781085,-0.233352
1515639306,0.64122,-0.227984,-0.237787,0.479576,-1.048383,-0.468193
1515639306,0.574423,-0.463306,-0.407204,0.459466,-0.628523,-0.426007
1515639306,0.40439,-0.588296,-0.400471,0.576376,-0.226306,-0.232447
1515639306,0.196419,-0.595471,-0.367028,0.751674,0.102972,-0.081793
1515639306,0.033434,-0.534566,-0.376138,0.880569,0.253608,-0.050206
1515639306,-0.096896,-0.475817,-0.337652,0.876111,0.382242,-0.041164
1515639306,-0.202499,-0.390144,-0.244502,0.8142,0.376519,-0.011362
1515639306,-0.292353,-0.252333,-0.165681,0.719261,0.252532,0.024342
1515639306,-0.379759,-0.108638,-0.105179,0.54986,0.092085,-0.004105
1515639306,-0.437164,0.004237,-0.041631,0.305423,-0.158941,-0.133157
1515639306,-0.45647,0.084083,0.032841,0.334787,-0.764681,-0.246441
1515639306,-0.452525,0.139667,0.05828,0.525719,-1.387799,-0.265907
1515639306,-0.436107,0.158068,0.043249,0.645203,-1.696561,-0.283084
1515639306,-0.4342,0.103838,-0.01391,0.781787,-1.78925,-0.333497
1515639306,-0.451562,0.005338,-0.097592,0.896915,-1.765022,-0.413302
1515639306,-0.445183,-0.039071,-0.135157,0.908445,-1.637134,-0.504466
1515639306,-0.422932,-0.050262,-0.151802,0.818705,-1.533266,-0.570185
1515639306,-0.382482,-0.082242,-0.17954,0.681841,-1.414912,-0.583634
1515639306,-0.287473,-0.108327,-0.212443,0.541025,-1.325483,-0.515115
1515639306,-0.154745,-0.120905,-0.229355,0.41863,-1.258454,-0.367786
1515639306,-0.025478,-0.135632,-0.230225,0.353491,-1.255964,-0.215354
1515639306,0.072126,-0.134593,-0.226699,0.335706,-1.289288,-0.102493
1515639306,0.139038,-0.091434,-0.213074,0.338153,-1.316056,-0.029048
1515639306,0.183685,-0.009686,-0.196057,0.34142,-1.319365,0.031707
1515639306,0.220263,0.084751,-0.171663,0.312593,-1.320659,0.066872
1515639306,0.254975,0.164827,-0.129388,0.259853,-1.280593,0.086197
1515639306,0.268107,0.224259,-0.085271,0.219167,-1.271301,0.10967
1515639306,0.240804,0.245911,-0.086269,0.187068,-1.375728,0.119897
1515639306,0.169827,0.208728,-0.104963,0.141632,-1.429113,0.100473
1515639306,0.10277,0.137872,-0.116221,0.079262,-1.282557,0.031736
1515639306,0.042373,0.070116,-0.14646,0.026635,-1.039171,-0.044074
1515639306,-0.022197,0.005354,-0.178929,0.020223,-0.824211,-0.122104
1515639306,-0.072204,-0.03726,-0.189972,0.050597,-0.654816,-0.180044
1515639306,-0.103492,-0.056743,-0.190286,0.084915,-0.558879,-0.192436
1515639306,-0.115871,-0.067057,-0.179712,0.117442,-0.497047,-0.176181
1515639306,-0.113363,-0.069479,-0.158696,0.148175,-0.4693,-0.140875
1515639306,-0.111575,-0.073723,-0.138712,0.155859,-0.488486,-0.098303
1515639306,-0.114456,-0.077987,-0.129184,0.144791,-0.55772,-0.078331
1515639306,-0.117227,-0.075738,-0.128689,0.126237,-0.626963,-0.074353
1515639306,-0.115081,-0.058572,-0.133627,0.127646,-0.662037,-0.079824
1515639306,-0.115881,-0.025512,-0.14665,0.139581,-0.68006,-0.079894
1515639307,-0.115806,0.006353,-0.163688,0.148238,-0.690671,-0.068205
1515639307,-0.110015,0.017193,-0.169311,0.136612,-0.703519,-0.055467
1515639307,-0.101346,0.016054,-0.167495,0.097174,-0.712306,-0.032068
1515639307,-0.096012,0.007857,-0.151698,0.047878,-0.696683,-0.008573
1515639307,-0.097222,0.004038,-0.126593,0.006973,-0.66505,0.007525
1515639307,-0.106902,0.011231,-0.111772,-0.013719,-0.624767,0.009808
1515639307,-0.113797,0.016517,-0.108184,-0.035812,-0.551483,-0.003767
1515639307,-0.11365,0.017825,-0.112516,-0.087611,-0.499653,-0.012113
1515639307,-0.098485,0.01543,-0.124692,-0.157231,-0.483017,-0.020608
1515639307,-0.075847,-0.000567,-0.128748,-0.214142,-0.454635,-0.011989
1515639307,-0.053737,-0.017069,-0.11885,-0.245668,-0.398498,0.008476
1515639307,-0.041898,-0.024231,-0.110598,-0.263338,-0.339074,0.019366
1515639307,-0.044158,-0.033826,-0.108792,-0.289213,-0.313776,0.05357
1515639307,-0.05119,-0.039825,-0.107287,-0.298577,-0.33835,0.082252
1515639307,-0.062371,-0.041392,-0.110067,-0.324194,-0.339632,0.114216
1515639307,-0.078794,-0.03792,-0.121972,-0.365902,-0.333577,0.143
1515639307,-0.095796,-0.028766,-0.149353,-0.425019,-0.29675,0.167639
1515639307,-0.107986,-0.025941,-0.166118,-0.45754,-0.250117,0.164617
1515639307,-0.123855,-0.026988,-0.172003,-0.466677,-0.190584,0.150993
1515639307,-0.143245,-0.022958,-0.168609,-0.469438,-0.125754,0.155512
1515639307,-0.171831,-0.009018,-0.151104,-0.478273,-0.095027,0.183349
1515639307,-0.219198,0.007114,-0.126485,-0.50166,-0.105875,0.222741
1515639307,-0.274739,0.022181,-0.107176,-0.550641,-0.122161,0.246106
1515639307,-0.328646,0.018058,-0.109146,-0.634512,-0.177945,0.253308
1515639307,-0.354119,-0.004785,-0.121078,-0.729731,-0.275252,0.246476
1515639307,-0.350408,-0.02441,-0.127262,-0.792726,-0.389405,0.243855
1515639307,-0.353266,-0.046273,-0.134111,-0.815123,-0.612843,0.235485
1515639307,-0.361431,-0.072776,-0.128829,-0.819498,-0.820273,0.239977
1515639307,-0.369924,-0.092144,-0.130163,-0.801375,-1.034978,0.23486
1515639307,-0.370681,-0.113247,-0.134295,-0.756964,-1.207993,0.208605
1515639307,-0.358903,-0.136388,-0.137432,-0.652915,-1.472013,0.125508
1515639307,-0.321479,-0.144233,-0.113575,-0.524041,-1.652909,0.029964
1515639307,-0.248374,-0.114803,-0.087549,-0.372508,-1.747506,-0.079083
1515639307,-0.148624,-0.056988,-0.059192,-0.212033,-1.7719,-0.178253
1515639307,-0.030023,0.006966,-0.018897,-0.065746,-1.765562,-0.259179
1515639307,0.09956,0.072074,0.034669,0.046706,-1.791538,-0.236838
1515639307,0.161859,0.078394,0.08362,0.158404,-1.950817,-0.05939
1515639307,0.097886,-0.016942,0.110082,0.2756,-2.120921,0.211829
1515639307,-0.03604,-0.147243,0.110405,0.396915,-2.172649,0.351335
1515639307,-0.137267,-0.201234,0.112089,0.528447,-2.074067,0.362457
1515639307,-0.207135,-0.161371,0.127123,0.634223,-1.857441,0.30261
1515639307,-0.258765,-0.05428,0.149022,0.713543,-1.667521,0.221319
1515639307,-0.30674,0.084469,0.153325,0.760845,-1.590542,0.159818
1515639307,-0.329352,0.237835,0.166798,0.644591,-1.613501,0.144747
1515639307,-0.317451,0.414475,0.234326,0.505847,-1.736731,0.204953
1515639307,-0.298764,0.554837,0.279921,0.447828,-2.026581,0.314632
1515639307,-0.268746,0.650945,0.288045,0.402303,-2.394933,0.372833
1515639307,-0.197551,0.665016,0.312941,0.451285,-2.70522,0.394002
1515639307,-0.103287,0.560272,0.27118,0.490346,-2.985711,0.375838
1515639307,-0.023357,0.412652,0.154516,0.409126,-3.094618,0.363637
1515639307,0.029975,0.270003,0.030025,0.220417,-2.918129,0.375983
1515639307,0.024321,0.138862,-0.022397,-0.037465,-2.66222,0.361961
1515639307,-0.040224,0.041883,-0.026679,-0.234407,-2.30372,0.28335
1515639307,-0.113053,-0.006648,-0.009513,-0.290369,-1.941091,0.140854
1515639307,-0.169691,-0.024122,-0.012223,-0.26843,-1.680007,-0.040386
1515639307,-0.167289,-0.039411,-0.034228,-0.257845,-1.46044,-0.230326
1515639307,-0.108024,-0.05641,-0.060831,-0.273384,-1.3006,-0.411991
1515639307,-0.033993,-0.082952,-0.090041,-0.304828,-1.151583,-0.543597
1515639307,0.038144,-0.126538,-0.118152,-0.341055,-1.056946,-0.630653
1515639307,0.099318,-0.167814,-0.139027,-0.369583,-0.98256,-0.683675
1515639307,0.128936,-0.207675,-0.156125,-0.396888,-0.923108,-0.707969
1515639307,0.140611,-0.243947,-0.167286,-0.399493,-0.876281,-0.73017
1515639307,0.126399,-0.263847,-0.162189,-0.391387,-0.831543,-0.741714
1515639307,0.096355,-0.273462,-0.150437,-0.388499,-0.800628,-0.761841
1515639307,0.058612,-0.273287,-0.131734,-0.396565,-0.742112,-0.793592
1515639307,0.022805,-0.270851,-0.105808,-0.4103,-0.650651,-0.825211
1515639307,-0.009385,-0.263019,-0.072354,-0.430518,-0.551779,-0.863203
1515639307,-0.033302,-0.243698,-0.047432,-0.461364,-0.458268,-0.92255
1515639307,-0.051458,-0.214298,-0.028681,-0.487574,-0.404017,-0.995904
1515639307,-0.071713,-0.177295,-0.020636,-0.483522,-0.386757,-1.081111
1515639307,-0.09233,-0.13056,-0.029584,-0.461995,-0.407677,-1.181396
1515639307,-0.110332,-0.083477,-0.034154,-0.420052,-0.441185,-1.313707
1515639307,-0.12735,-0.042883,-0.009963,-0.369401,-0.492666,-1.464206
1515639307,-0.141347,-0.005662,0.035013,-0.347676,-0.535827,-1.602957
1515639307,-0.155651,0.031128,0.085813,-0.338466,-0.607895,-1.689594
1515639307,-0.165317,0.052099,0.122207,-0.321329,-0.725648,-1.775344
1515639307,-0.179914,0.054558,0.133333,-0.29037,-0.8359,-1.851462
1515639307,-0.198243,0.039229,0.123339,-0.268397,-0.899494,-1.890085
1515639307,-0.205767,0.013788,0.097119,-0.263715,-0.940954,-1.884919
1515639307,-0.178313,-0.013371,0.063269,-0.281024,-0.916721,-1.821928
1515639307,-0.129475,-0.023413,0.024419,-0.2786,-0.942403,-1.745273
1515639307,-0.094056,-0.021524,-0.019434,-0.215179,-1.08683,-1.678662
1515639307,-0.065946,-0.02079,-0.045205,-0.130672,-1.203436,-1.63005
1515639307,-0.041873,-0.017067,-0.0587,-0.043731,-1.351851,-1.626345
1515639307,-0.028355,-0.016175,-0.069348,0.016848,-1.427046,-1.610626
1515639307,-0.022834,-0.028058,-0.062842,0.09433,-1.484006,-1.614012
1515639307,-0.008866,-0.056066,-0.049298,0.185323,-1.501548,-1.620436
1515639307,0.027384,-0.090805,-0.048509,0.270904,-1.5127,-1.650293
1515639307,0.076703,-0.122612,-0.042786,0.367348,-1.432357,-1.663784
1515639307,0.133211,-0.155589,-0.027446,0.489993,-1.298733,-1.657859
1515639307,0.18765,-0.186178,-0.015047,0.631528,-1.238418,-1.635162
1515639307,0.227808,-0.211055,0.006019,0.757657,-1.12942,-1.54298
1515639307,0.247358,-0.214449,0.02377,0.864993,-1.064181,-1.432862
1515639307,0.232464,-0.205546,0.033133,0.898966,-0.925013,-1.278772
1515639307,0.187832,-0.190281,0.041322,0.864582,-0.78939,-1.143919
1515639307,0.139798,-0.178332,0.031393,0.806703,-0.766528,-1.057505
1515639307,0.089928,-0.15488,0.026587,0.752504,-0.683026,-0.967646
1515639307,0.049765,-0.115475,0.013494,0.735426,-0.680142,-0.87916
1515639307,0.039536,-0.094541,0.001004,0.729256,-0.699562,-0.771568
1515639308,0.061039,-0.096587,0.002739,0.755185,-0.72307,-0.655448
1515639308,0.091267,-0.114637,0.00077,0.816163,-0.725097,-0.544555
1515639308,0.116463,-0.132317,-0.003342,0.894158,-0.719571,-0.430422
1515639308,0.140793,-0.143858,0.00387,0.974264,-0.709836,-0.299218
1515639308,0.157593,-0.159593,0.035257,1.06064,-0.685195,-0.159422
1515639308,0.15729,-0.184513,0.074275,1.130842,-0.645751,-0.022773
1515639308,0.141812,-0.203403,0.09147,1.202038,-0.598846,0.108576
1515639308,0.120666,-0.223073,0.095405,1.295427,-0.527333,0.23044
1515639308,0.105575,-0.256786,0.100899,1.413153,-0.43121,0.341749
1515639308,0.098621,-0.287295,0.098815,1.549943,-0.318986,0.441409
1515639308,0.095632,-0.299706,0.084852,1.714277,-0.182158,0.548644
1515639308,0.09074,-0.28549,0.05748,1.858371,-0.0508,0.670772
1515639308,0.074076,-0.206615,0.016294,1.914725,0.093843,0.808902
1515639308,0.016384,0.061772,0.010289,1.688714,0.264607,0.907559
1515639308,-0.142332,0.852848,-0.000482,0.500664,0.237095,0.662757
1515639308,-0.618351,2.235074,-0.328834,-0.101448,-0.35794,0.793343
1515639308,-1.234432,2.888439,-0.12066,0.213316,-1.617707,0.918496
1515639308,-1.129108,2.352325,0.591761,0.218577,-2.727867,0.414057
1515639308,-0.279002,0.944382,0.747576,0.626394,-1.942061,0.081591
1515639308,0.476606,0.086979,0.21659,0.75482,-0.336937,-0.218937
1515639308,0.840419,-0.294604,-0.302875,0.443379,1.021697,-0.326639
1515639308,0.892569,-0.707073,-0.505778,0.15744,1.753413,-0.131946
1515639308,0.823771,-0.975208,-0.485672,0.124691,1.839723,0.182876
1515639308,0.727149,-0.93827,-0.402971,0.27652,1.733628,0.45757
1515639308,0.59392,-0.775529,-0.338389,0.46595,1.60548,0.703408
1515639308,0.45745,-0.618769,-0.312416,0.613052,1.321988,0.876111
1515639308,0.311423,-0.457692,-0.287963,0.707047,1.004238,1.013469
1515639308,0.125197,-0.275045,-0.236116,0.75695,0.821446,1.085253
1515639308,-0.093994,-0.057045,-0.190602,0.766942,0.782206,1.057379
1515639308,-0.317345,0.143486,-0.138235,0.790934,0.726268,0.929238
1515639308,-0.529559,0.289563,-0.044271,0.911896,0.479408,0.836629
1515639308,-0.687036,0.366723,0.057319,0.99585,0.086515,0.788186
1515639308,-0.715464,0.374887,0.173685,0.865632,-0.157256,0.551538
1515639308,-0.605167,0.293869,0.25271,0.745095,-0.19748,0.161137
1515639308,-0.502956,0.117113,0.20661,0.849456,-0.280459,-0.024638
1515639308,-0.427789,-0.019238,0.074339,0.957761,-0.433828,-0.119016
1515639308,-0.376664,-0.105917,-0.041051,0.866796,-0.533049,-0.212208
1515639308,-0.367295,-0.190367,-0.103328,0.696645,-0.62101,-0.309654
1515639308,-0.321817,-0.242721,-0.140863,0.605936,-0.743757,-0.341105
1515639308,-0.2291,-0.260378,-0.147375,0.57367,-0.827098,-0.249773
1515639308,-0.114846,-0.244183,-0.137339,0.575045,-0.850836,-0.096354
1515639308,0.000106,-0.197076,-0.127025,0.582822,-0.762934,0.086301
1515639308,0.104051,-0.141797,-0.120894,0.59424,-0.613204,0.215904
1515639308,0.20565,-0.069309,-0.114995,0.576591,-0.552863,0.293961
1515639308,0.298208,0.018203,-0.093102,0.528572,-0.667012,0.330793
1515639308,0.360243,0.097529,-0.027579,0.485132,-0.921522,0.371328
1515639308,0.391076,0.162894,0.050271,0.473471,-1.149194,0.380003
1515639308,0.384295,0.205721,0.100981,0.47979,-1.24811,0.401996
1515639308,0.337001,0.211777,0.112411,0.445594,-1.137749,0.428012
1515639308,0.266522,0.178347,0.098745,0.360816,-0.879894,0.464187
1515639308,0.187723,0.125104,0.066889,0.258632,-0.591236,0.464225
1515639308,0.101297,0.074755,0.02674,0.17316,-0.373703,0.458661
1515639308,0.021417,0.034033,-0.009976,0.149018,-0.201472,0.425229
1515639308,-0.039672,-0.003165,-0.040171,0.166955,-0.0715,0.369257
1515639308,-0.083802,-0.038682,-0.055386,0.201145,0.036211,0.315331
1515639308,-0.115886,-0.065425,-0.055369,0.236343,0.150287,0.278493
1515639308,-0.136996,-0.067416,-0.042589,0.262981,0.266389,0.270446
1515639308,-0.152396,-0.057374,-0.028181,0.275963,0.360021,0.282555
1515639308,-0.164335,-0.042123,-0.027204,0.281715,0.429117,0.304153
1515639308,-0.166828,-0.033067,-0.024523,0.263396,0.556524,0.350496
1515639308,-0.156173,-0.029975,-0.020039,0.228525,0.627496,0.391278
1515639308,-0.143348,-0.041164,-0.013942,0.189951,0.639967,0.422226
1515639308,-0.140226,-0.053644,0.009774,0.170145,0.589844,0.432675
1515639308,-0.140012,-0.058135,0.032635,0.181485,0.522904,0.43561
1515639308,-0.146746,-0.060856,0.040662,0.206766,0.45175,0.457725
1515639308,-0.162285,-0.062746,0.038449,0.246815,0.400856,0.491654
1515639308,-0.183076,-0.059157,0.03316,0.27502,0.359458,0.52668
1515639308,-0.209717,-0.053671,0.024728,0.285702,0.361564,0.56294
1515639308,-0.24074,-0.051184,0.022833,0.272353,0.415698,0.581278
1515639308,-0.272734,-0.047157,0.032705,0.238004,0.540997,0.578566
1515639308,-0.302008,-0.052774,0.053608,0.201205,0.698207,0.557853
1515639308,-0.322364,-0.064378,0.08424,0.17407,0.84914,0.524332
1515639308,-0.331109,-0.068132,0.119009,0.153922,0.941593,0.505505
1515639308,-0.326439,-0.06046,0.161322,0.152764,0.951141,0.513005
1515639308,-0.303401,-0.041054,0.207965,0.151048,0.800054,0.541182
1515639308,-0.275195,-0.020383,0.259243,0.131336,0.633878,0.612999
1515639308,-0.247795,-0.002532,0.314429,0.09768,0.473954,0.710422
1515639308,-0.22644,-0.000136,0.354883,0.046495,0.358591,0.805882
1515639308,-0.23007,-0.015948,0.387167,-0.024565,0.310076,0.909057
1515639308,-0.258754,-0.043184,0.40014,-0.126035,0.310361,0.996428
1515639308,-0.318285,-0.076397,0.374658,-0.285224,0.311401,1.088047
1515639308,-0.42252,-0.117475,0.294511,-0.537195,0.29387,1.147557
1515639308,-0.52946,-0.131356,0.15135,-0.882343,0.184562,1.107507
1515639308,-0.586975,-0.096304,-0.063474,-1.267778,-0.078635,0.829089
1515639308,-0.585535,0.0658,-0.24779,-1.434637,-0.412464,0.362865
1515639308,-0.638918,0.422492,-0.234555,-1.132611,-0.619073,-0.153799
1515639308,-0.631428,0.701544,-0.031898,-0.661422,-0.756378,-0.798038
1515639308,-0.361662,0.529558,0.049729,-0.724038,-1.15027,-1.248465
1515639308,-0.059145,0.055972,-0.023239,-1.152873,-1.54846,-1.19483
1515639308,0.144634,-0.12067,-0.033236,-1.586253,-2.129949,-0.983088
1515639308,0.175643,0.028358,-0.022828,-1.88587,-2.73497,-0.848138
1515639308,-0.034887,0.202632,0.037156,-2.102381,-2.88408,-0.827517
1515639308,-0.235455,0.370755,0.063593,-2.199139,-2.720585,-0.942039
1515639308,-0.358998,0.587903,-0.014454,-2.107239,-2.508171,-1.056279
1515639308,-0.405471,0.747956,-0.141833,-1.981567,-2.246902,-1.058371
1515639308,-0.326715,0.795214,-0.250472,-1.980909,-1.984303,-1.022137
1515639308,-0.129311,0.701507,-0.315085,-2.10971,-1.700313,-0.896328
1515639308,0.075364,0.553589,-0.338968,-2.234943,-1.562025,-0.759375
1515639308,0.224117,0.419567,-0.335439,-2.283793,-1.591098,-0.726468
1515639309,0.300864,0.299967,-0.254209,-2.265222,-1.527016,-0.800827
1515639309,0.280262,0.214603,-0.118954,-2.183334,-1.383778,-0.913215
1515639309,0.191224,0.144165,-0.000543,-2.039967,-1.189167,-1.018973
1515639309,0.12041,0.075837,0.043442,-1.835714,-1.101638,-1.112338
1515639309,0.091232,0.009737,0.001564,-1.646078,-1.048257,-1.194121
1515639309,0.105647,-0.04408,-0.069662,-1.51251,-0.943087,-1.27679
1515639309,0.141462,-0.100421,-0.158919,-1.343194,-0.988083,-1.171349
1515639309,0.310375,-0.333666,-0.375744,-0.79343,-2.107219,-0.557257
1515639309,0.489434,-0.369872,-0.388994,-0.555852,-2.374415,-0.778893
1515639309,0.343479,-0.324619,-0.356411,-0.533268,-1.955122,-0.84756
1515639309,0.274901,-0.28991,-0.340217,-0.737512,-1.070143,-0.972036
1515639309,0.195585,-0.238928,-0.348287,-0.920459,-0.400731,-1.182652
1515639309,0.102852,-0.281848,-0.341959,-1.025755,0.085183,-1.409958
1515639309,0.070549,-0.324934,-0.312509,-0.961336,0.154027,-1.591949
1515639309,0.052251,-0.385798,-0.300115,-0.816339,0.181687,-1.699443
1515639309,0.055763,-0.388976,-0.205308,-0.704302,0.415287,-1.724037
1515639309,0.131536,-0.344873,-0.167015,-0.409876,0.146412,-1.527753
1515639309,0.250321,-0.349274,-0.156493,-0.072668,-0.234996,-1.307378
1515639309,0.329926,-0.328671,-0.100716,0.173561,-0.49447,-1.157986
1515639309,0.342541,-0.305018,-0.073002,0.304923,-0.701317,-1.066009
1515639309,0.30874,-0.294485,-0.071332,0.311455,-0.819487,-0.993987
1515639309,0.278295,-0.293252,-0.085226,0.238515,-0.78915,-0.950188
1515639309,0.261183,-0.290698,-0.108518,0.127628,-0.485629,-0.952221
1515639309,0.256011,-0.285514,-0.121691,0.069065,-0.06908,-0.959109
1515639309,0.26333,-0.297252,-0.132046,0.116387,0.339452,-0.909474
1515639309,0.286771,-0.323352,-0.128134,0.246245,0.613317,-0.817694
1515639309,0.302267,-0.358442,-0.090574,0.459407,0.673862,-0.715007
1515639309,0.303383,-0.404269,-0.027792,0.735104,0.67834,-0.585863
1515639309,0.30121,-0.434874,0.054941,1.046514,0.637261,-0.440894
1515639309,0.269651,-0.426602,0.117263,1.334725,0.568236,-0.227822
1515639309,0.207326,-0.371399,0.124555,1.562263,0.477492,0.034176
1515639309,0.138706,-0.305766,0.094323,1.676128,0.426599,0.258969
1515639309,0.054796,-0.25233,0.094645,1.512686,0.429582,0.407088
1515639309,-0.057508,-0.177961,0.166324,1.059938,0.510853,0.476495
1515639309,-0.200861,-0.055875,0.275619,0.609422,0.683962,0.378897
1515639309,-0.392709,0.073448,0.348705,0.225997,0.869656,0.048972
1515639309,-0.628178,0.231363,0.389317,0.111977,0.605869,-0.220791
1515639309,-0.705466,0.462726,0.335187,0.634778,0.140806,-0.155242
1515639309,-0.403954,0.557708,0.193933,1.145496,0.159011,0.14464
1515639309,-0.040548,0.29256,0.094518,1.260098,0.253723,0.405194
1515639309,0.143358,-0.237084,0.076681,1.32657,0.345326,0.510069
1515639309,0.223487,-0.563432,0.043558,1.431644,0.528803,0.519378
1515639309,0.284418,-0.637557,-0.0213,1.588632,0.756217,0.521431
1515639309,0.349777,-0.493426,0.009948,1.859924,1.328207,0.820229
1515639309,0.357536,0.258498,0.224819,1.185465,1.807351,1.205616
1515639309,-0.137461,2.056377,-0.212646,-0.46825,1.199225,0.693874
1515639309,-1.083382,3.541069,-0.228996,-1.322645,-0.269884,0.610817
1515639309,-1.268185,3.347034,0.999643,-1.162925,-1.540201,0.314761
1515639309,-0.438661,1.209359,0.970219,-0.087692,-0.822837,-0.041116
1515639309,0.176067,-0.106452,0.326896,0.866351,0.493362,-0.288047
1515639309,0.533705,-0.475686,-0.269434,1.067286,1.245686,-0.449108
1515639309,0.76824,-0.734682,-0.664551,0.749879,1.798968,-0.434246
1515639309,0.791499,-0.950666,-0.698626,0.525447,2.253334,-0.178805
1515639309,0.710076,-0.980202,-0.593894,0.590937,2.339442,0.011338
1515639309,0.621011,-0.775918,-0.54003,0.818849,2.207366,0.211338
1515639309,0.46554,-0.574214,-0.447266,1.004689,1.900506,0.464984
1515639309,0.317698,-0.38666,-0.330123,1.009404,1.536403,0.653287
1515639309,0.146468,-0.151097,-0.197003,0.864092,1.3216,0.748303
1515639309,-0.058811,0.089121,-0.124761,0.729339,1.230167,0.866206
1515639309,-0.204739,0.255077,-0.078113,0.567142,0.999061,1.077352
1515639309,-0.292419,0.328429,0.012629,0.480066,0.519385,1.350433
1515639309,-0.347834,0.342745,0.046872,0.475529,0.007469,1.50722
1515639309,-0.362919,0.325485,0.069925,0.427551,-0.229614,1.353798
1515639309,-0.314809,0.241364,0.130227,0.356726,-0.000424,0.930386
1515639309,-0.246934,0.103969,0.214951,0.429292,0.316785,0.51166
1515639309,-0.267379,-0.057158,0.191959,0.718724,0.315921,0.22396
1515639309,-0.30887,-0.189443,0.081939,0.936152,0.252759,0.018058
1515639309,-0.300234,-0.265238,-0.00999,0.960348,0.174565,-0.148555
1515639309,-0.25959,-0.299437,-0.079025,0.855617,0.061485,-0.258864
1515639309,-0.19669,-0.302255,-0.097012,0.722755,-0.119046,-0.237262
1515639309,-0.144066,-0.278167,-0.077539,0.596231,-0.283957,-0.054619
1515639309,-0.102379,-0.233523,-0.051944,0.478773,-0.391444,0.157045
1515639309,-0.042351,-0.169106,-0.041292,0.383921,-0.408326,0.32857
1515639309,0.00951,-0.095016,-0.045556,0.308028,-0.39844,0.463962
1515639309,0.034741,-0.020319,-0.060563,0.267352,-0.386138,0.564203
1515639309,0.054363,0.06217,-0.061932,0.263091,-0.386216,0.58552
1515639309,0.079204,0.142728,-0.047043,0.280259,-0.395595,0.543914
1515639309,0.101838,0.208885,-0.035295,0.266412,-0.402989,0.488443
1515639309,0.111767,0.237577,-0.024114,0.210933,-0.412818,0.461726
1515639309,0.115377,0.203691,-0.007468,0.126459,-0.406902,0.449981
1515639309,0.120176,0.128473,0.013093,0.053297,-0.356239,0.434158
1515639309,0.098411,0.045963,0.025899,0.004679,-0.300206,0.451414
1515639309,0.067751,-0.01539,0.027811,-0.022921,-0.208925,0.460295
1515639309,0.050104,-0.044636,0.019381,-0.036231,-0.049498,0.473725
1515639309,0.033716,-0.052959,0.009475,-0.028877,0.073855,0.496611
1515639309,-0.002992,-0.043761,0.002235,0.010222,0.11976,0.512802
1515639309,-0.048442,-0.022825,-0.001257,0.081678,0.133975,0.521421
1515639309,-0.092168,-0.013874,-0.007434,0.158289,0.167353,0.539718
1515639309,-0.128425,-0.030234,-0.018682,0.226968,0.248488,0.576323
1515639309,-0.157261,-0.067317,-0.027633,0.259988,0.370863,0.629068
1515639309,-0.182678,-0.107437,-0.037968,0.25453,0.49512,0.69033
1515639309,-0.219599,-0.132547,-0.048358,0.232958,0.518284,0.733052
1515639309,-0.268106,-0.142517,-0.046809,0.209125,0.44364,0.761526
1515639309,-0.327288,-0.138346,-0.042838,0.196755,0.288283,0.772625
1515639309,-0.376474,-0.117874,-0.041724,0.20624,0.083087,0.772872
1515639309,-0.408982,-0.082575,-0.036495,0.236861,-0.099596,0.749768
1515639309,-0.426966,-0.049351,-0.013511,0.325307,-0.187224,0.690824
1515639309,-0.423158,-0.025091,0.032638,0.450754,-0.126722,0.58665
1515639309,-0.396326,-0.000879,0.098853,0.538483,0.075038,0.470233
1515639310,-0.344142,0.026575,0.165852,0.501219,0.276002,0.394267
1515639310,-0.275293,0.033187,0.224221,0.356095,0.365559,0.396689
1515639310,-0.224578,0.019156,0.286825,0.137307,0.343887,0.484979
1515639310,-0.227151,-0.01841,0.342036,-0.085173,0.264665,0.624211
1515639310,-0.282972,-0.047928,0.360907,-0.270406,0.201581,0.773119
1515639310,-0.367907,-0.082535,0.334779,-0.437057,0.203545,0.893514
1515639310,-0.433159,-0.109861,0.265637,-0.62224,0.238556,0.944745
1515639310,-0.464521,-0.11645,0.137372,-0.848868,0.136374,0.879197
1515639310,-0.458451,-0.081539,-0.055569,-1.093405,-0.217617,0.654846
1515639310,-0.440021,0.103732,-0.209799,-1.136739,-0.61365,0.259856
1515639310,-0.427438,0.442308,-0.154977,-0.817242,-0.640419,-0.259275
1515639310,-0.260327,0.565979,0.045859,-0.554089,-0.591783,-0.880475
1515639310,0.0954,0.293751,0.083098,-0.745636,-0.797412,-1.196947
1515639310,0.351111,-0.028631,0.067523,-1.178063,-1.152199,-1.064251
1515639310,0.466232,-0.101536,0.089096,-1.580822,-1.805807,-0.866646
1515639310,0.366439,0.03777,0.07993,-1.850909,-2.262793,-0.746009
1515639310,0.090112,0.212953,0.116208,-1.959627,-2.290031,-0.732311
1515639310,-0.122159,0.402896,0.112271,-1.947441,-2.118603,-0.794515
1515639310,-0.259909,0.574665,0.021364,-1.85485,-1.862795,-0.815834
1515639310,-0.318878,0.685407,-0.08758,-1.808092,-1.507374,-0.795196
1515639310,-0.254985,0.690104,-0.166692,-1.862854,-1.151453,-0.778867
1515639310,-0.104402,0.565682,-0.226391,-2.00525,-0.902416,-0.751284
1515639310,0.016663,0.445824,-0.241892,-2.104634,-0.789307,-0.701838
1515639310,0.075801,0.346987,-0.201053,-2.114631,-0.746985,-0.631312
1515639310,0.098953,0.255002,-0.120816,-2.033804,-0.705178,-0.570339
1515639310,0.111656,0.169937,-0.04435,-1.918843,-0.659871,-0.56264
1515639310,0.106809,0.100882,0.001083,-1.756268,-0.676974,-0.588221
1515639310,0.076661,0.064305,-0.004911,-1.573079,-0.836427,-0.623953
1515639310,0.070907,0.024441,-0.047436,-1.429509,-0.988613,-0.67673
1515639310,0.11392,-0.028872,-0.088451,-1.349982,-1.040048,-0.773912
1515639310,0.162372,-0.083347,-0.142801,-1.293429,-1.037345,-0.890078
1515639310,0.187504,-0.143411,-0.195486,-1.222106,-1.015411,-1.004026
1515639310,0.194971,-0.191401,-0.243612,-1.117012,-1.058224,-1.089435
1515639310,0.182133,-0.224532,-0.284332,-0.966,-1.096591,-1.140689
1515639310,0.181487,-0.261409,-0.305581,-0.778043,-1.087981,-1.18001
1515639310,0.197006,-0.298705,-0.312813,-0.591038,-0.980541,-1.189084
1515639310,0.22828,-0.332674,-0.305224,-0.44507,-0.828684,-1.18627
1515639310,0.258368,-0.355718,-0.292121,-0.333087,-0.697253,-1.178227
1515639310,0.273875,-0.366548,-0.255677,-0.229584,-0.57227,-1.164885
1515639310,0.274888,-0.359943,-0.196958,-0.119578,-0.45682,-1.149445
1515639310,0.262874,-0.337445,-0.134047,-0.014362,-0.396743,-1.120374
1515639310,0.242177,-0.303883,-0.075595,0.068764,-0.371917,-1.071195
1515639310,0.225446,-0.265766,-0.033273,0.119015,-0.373829,-1.030664
1515639310,0.217997,-0.236094,-0.010116,0.135314,-0.401393,-1.027568
1515639310,0.197713,-0.219411,0.001496,0.113034,-0.418501,-1.042572
1515639310,0.163082,-0.203917,0.002054,0.07982,-0.411159,-1.082003
1515639310,0.117392,-0.184283,-0.011097,0.08645,-0.32699,-1.1275
1515639310,0.073458,-0.172525,-0.038464,0.129785,-0.169338,-1.132177
1515639310,0.038098,-0.185811,-0.071437,0.235265,-0.027357,-1.105973
1515639310,0.025142,-0.224615,-0.070843,0.352265,0.031622,-1.02466
1515639310,0.042577,-0.259968,-0.036864,0.425506,-0.021429,-0.892645
1515639310,0.10498,-0.299828,0.012652,0.605816,-0.203721,-0.710992
1515639310,0.200309,-0.356741,0.009076,0.808376,-0.367741,-0.564439
1515639310,0.303867,-0.386256,-0.069514,0.902963,-0.421584,-0.498514
1515639310,0.356718,-0.391547,-0.121914,0.931665,-0.293956,-0.425492
1515639310,0.342811,-0.372966,-0.113941,1.072039,-0.111503,-0.334077
1515639310,0.331943,-0.311945,-0.107975,1.170245,0.121757,-0.245678
1515639310,0.299607,-0.247708,-0.113652,1.082739,0.331698,-0.190507
1515639310,0.243614,-0.174242,-0.055307,0.790319,0.515032,-0.179252
1515639310,0.166122,-0.048554,0.093184,0.330452,0.768972,-0.304249
1515639310,0.030787,0.147966,0.317832,-0.237236,1.223652,-0.590535
1515639310,-0.202409,0.347227,0.538849,-0.6033,1.603909,-0.843975
1515639310,-0.368973,0.505084,0.626853,-0.162189,1.082896,-0.699801
1515639310,-0.241519,0.6112,0.446543,0.473097,0.603941,-0.32403
1515639310,-0.004909,0.50739,0.21962,0.724303,0.830007,0.046925
1515639310,0.141948,0.023069,0.024427,0.76672,1.093455,0.28467
1515639310,0.193471,-0.42873,-0.078768,0.822206,1.217879,0.422716
1515639310,0.195219,-0.60863,-0.07512,0.966965,1.279143,0.504052
1515639310,0.169547,-0.633923,-0.03355,1.184043,1.377924,0.63781
1515639310,0.132277,-0.633116,0.018621,1.442189,1.431122,0.811916
1515639310,0.079074,-0.623201,0.055236,1.71197,1.386561,0.983505
1515639310,-0.000781,-0.568184,0.069599,1.888342,1.276682,1.112143
1515639310,-0.084757,-0.41703,0.09317,1.852065,1.166713,1.211896
1515639310,-0.176747,0.134638,0.378499,0.802201,1.548067,1.091394
1515639310,-0.599829,1.96989,0.445003,-0.593905,0.704572,0.446639
1515639310,-1.740565,3.570636,-0.377453,-0.488832,-0.199143,0.610437
1515639310,-2.209438,3.374041,0.452638,-0.070533,-2.45581,0.242311
1515639310,-1.19088,1.490748,0.593314,0.689025,-2.788668,-0.18829
1515639310,0.117901,0.158508,0.205979,1.314215,-1.271625,-0.242668
1515639310,0.795312,-0.210308,-0.220847,1.236982,0.388525,-0.472713
1515639310,1.162372,-0.602247,-0.572598,0.711057,1.390667,-0.548897
1515639310,1.183606,-0.984827,-0.606208,0.332898,1.948012,-0.133204
1515639310,1.095037,-1.07587,-0.402126,0.142557,2.095795,0.337432
1515639310,1.004709,-0.823676,-0.272351,0.22009,1.940269,0.65027
1515639310,0.805185,-0.584095,-0.230044,0.495572,1.746974,0.772228
1515639310,0.581054,-0.388846,-0.223003,0.759078,1.681438,0.793412
1515639310,0.381642,-0.234881,-0.195982,0.872618,1.764944,0.828977
1515639310,0.190458,-0.08666,-0.165494,0.695492,1.744553,0.93222
1515639310,-0.01702,0.080804,-0.093049,0.213926,1.39045,1.111805
1515639310,-0.239114,0.253109,0.07009,-0.024339,0.743077,1.325508
1515639310,-0.429156,0.370858,0.187886,0.036787,0.178505,1.422416
1515639310,-0.551629,0.425976,0.288063,0.148627,0.208162,1.288263
1515639310,-0.576362,0.399999,0.329466,0.238318,0.528385,0.99429
1515639310,-0.553127,0.241229,0.212209,0.401364,0.662129,0.577003
1515639310,-0.536998,0.00162,0.066247,0.650503,0.62612,0.196387
1515639310,-0.56154,-0.173884,-0.070493,0.835094,0.529966,-0.082156
1515639310,-0.518853,-0.245785,-0.170768,0.836671,0.576224,-0.317575
1515639310,-0.408684,-0.26802,-0.176837,0.703394,0.649163,-0.461265
1515639310,-0.293828,-0.275003,-0.122289,0.571242,0.616374,-0.399625
1515639311,-0.175178,-0.254543,-0.067014,0.472658,0.434636,-0.229829
1515639311,-0.059314,-0.216891,-0.036347,0.378847,0.203904,-0.011186
1515639311,0.041898,-0.168145,-0.035252,0.307958,0.033887,0.219436
1515639311,0.126453,-0.101032,-0.052013,0.275851,-0.061346,0.392806
1515639311,0.196366,-0.017052,-0.07076,0.291789,-0.156148,0.501172
1515639311,0.223158,0.051517,-0.079964,0.318161,-0.336941,0.577221
1515639311,0.237889,0.112231,-0.068401,0.322606,-0.571998,0.601866
1515639311,0.260949,0.153707,-0.026865,0.299707,-0.745385,0.555315
1515639311,0.263636,0.148086,0.009676,0.243345,-0.775372,0.505062
1515639311,0.226896,0.122143,0.022676,0.161214,-0.682201,0.480878
1515639311,0.177814,0.090814,0.013878,0.079412,-0.511472,0.490052
1515639311,0.125323,0.051734,-0.00588,0.0137,-0.347033,0.498142
1515639311,0.078715,0.019761,-0.02748,-0.025087,-0.204756,0.500827
1515639311,0.038639,0.008537,-0.04158,-0.037657,-0.122871,0.472367
1515639311,-0.003482,0.011853,-0.051625,-0.028937,-0.033385,0.425823
1515639311,-0.04218,0.021793,-0.044001,-0.008908,0.101887,0.382666
1515639311,-0.082697,0.026261,-0.03229,0.017542,0.23613,0.340574
1515639311,-0.117752,0.022529,-0.020339,0.048675,0.328893,0.32071
1515639311,-0.143045,0.005838,-0.019137,0.076417,0.332276,0.305812
1515639311,-0.149899,-0.011912,-0.011344,0.095692,0.328132,0.302604
1515639311,-0.143036,-0.026486,0.002817,0.087305,0.313124,0.334522
1515639311,-0.127831,-0.041118,0.00826,0.080567,0.239597,0.382197
1515639311,-0.116415,-0.059172,0.014199,0.072604,0.183034,0.450195
1515639311,-0.114698,-0.076993,0.019076,0.068419,0.068001,0.517959
1515639311,-0.119898,-0.095987,0.011635,0.068644,-0.060842,0.591002
1515639311,-0.135317,-0.103453,0.01541,0.061931,-0.135506,0.675987
1515639311,-0.160293,-0.106446,0.012414,0.07065,-0.259994,0.725597
1515639311,-0.197428,-0.109967,0.00754,0.103094,-0.299178,0.73185
1515639311,-0.232547,-0.099089,0.017209,0.133394,-0.228813,0.731081
1515639311,-0.281741,-0.077736,0.018221,0.165514,-0.127527,0.697387
1515639311,-0.326966,-0.05448,0.02681,0.176547,0.054445,0.672536
1515639311,-0.365573,-0.039045,0.044712,0.159433,0.273487,0.64569
1515639311,-0.384145,-0.028751,0.061168,0.126596,0.461591,0.619778
1515639311,-0.388435,-0.025637,0.081994,0.113192,0.520052,0.600817
1515639311,-0.385988,-0.031514,0.101787,0.109238,0.487071,0.596419
1515639311,-0.372412,-0.036845,0.131329,0.094591,0.346577,0.607573
1515639311,-0.365929,-0.041295,0.155653,0.075353,0.130479,0.653604
1515639311,-0.354649,-0.049328,0.180442,0.037115,-0.109137,0.704862
1515639311,-0.346191,-0.047364,0.202921,-0.01956,-0.320178,0.771151
1515639311,-0.349405,-0.057819,0.222144,-0.089708,-0.464321,0.851564
1515639311,-0.369502,-0.079425,0.235172,-0.200078,-0.538483,0.918376
1515639311,-0.411105,-0.112334,0.223169,-0.383657,-0.556675,0.968318
1515639311,-0.475072,-0.153058,0.164074,-0.637549,-0.598573,0.981889
1515639311,-0.535439,-0.195304,0.040304,-0.921991,-0.800939,0.865806
1515639311,-0.561725,-0.186368,-0.128925,-1.170445,-1.198261,0.520818
1515639311,-0.559144,-0.025177,-0.261719,-1.209609,-1.589737,0.001117
1515639311,-0.582944,0.302197,-0.18504,-0.750676,-1.455986,-0.610054
1515639311,-0.435698,0.503593,0.0958,-0.277701,-1.016611,-1.36711
1515639311,0.003006,0.338283,0.159403,-0.429509,-0.924845,-1.890256
1515639311,0.378159,0.121044,0.079474,-0.925742,-1.210461,-1.937477
1515639311,0.565963,0.049832,0.100608,-1.401637,-1.806419,-1.547779
1515639311,0.564607,0.128297,0.124093,-1.734135,-2.314381,-1.143801
1515639311,0.336128,0.29284,0.098601,-1.949598,-2.447127,-0.83101
1515639311,0.064422,0.479122,0.06323,-2.008158,-2.244574,-0.730016
1515639311,-0.105881,0.699545,0.044017,-1.900438,-1.785639,-0.713199
1515639311,-0.190198,0.87691,0.022654,-1.75409,-1.338408,-0.595133
1515639311,-0.190328,0.921493,-0.057962,-1.737999,-1.118526,-0.440729
1515639311,-0.10699,0.760105,-0.153851,-1.82794,-1.091752,-0.279687
1515639311,-0.035506,0.48428,-0.223745,-1.916718,-1.186107,-0.163906
1515639311,-0.009937,0.259643,-0.242643,-1.894284,-1.293467,-0.127012
1515639311,-0.01938,0.110028,-0.206079,-1.791769,-1.287536,-0.138666
1515639311,-0.01628,0.022842,-0.147005,-1.615433,-1.184287,-0.205332
1515639311,0.002323,-0.024238,-0.111036,-1.418328,-1.130817,-0.307367
1515639311,0.027288,-0.06821,-0.110308,-1.223672,-1.154984,-0.415045
1515639311,0.059355,-0.116267,-0.12433,-1.05569,-1.183541,-0.52915
1515639311,0.094736,-0.159512,-0.149904,-0.93177,-1.185791,-0.627176
1515639311,0.121221,-0.198851,-0.184871,-0.834697,-1.176394,-0.775277
1515639311,0.149545,-0.244121,-0.21329,-0.734872,-1.119188,-0.895466
1515639311,0.165036,-0.27861,-0.228063,-0.616159,-1.025759,-0.996312
1515639311,0.186504,-0.290778,-0.234635,-0.490917,-0.942992,-1.065213
1515639311,0.194599,-0.293955,-0.23842,-0.374066,-0.875214,-1.113925
1515639311,0.197977,-0.298823,-0.239095,-0.291281,-0.818344,-1.13285
1515639311,0.208346,-0.306044,-0.24227,-0.252006,-0.791539,-1.129526
1515639311,0.210552,-0.313913,-0.240944,-0.237914,-0.811681,-1.125337
1515639311,0.201276,-0.316953,-0.210646,-0.227266,-0.807388,-1.11572
1515639311,0.17939,-0.296195,-0.154342,-0.195305,-0.797644,-1.106068
1515639311,0.150431,-0.252704,-0.099358,-0.139675,-0.804757,-1.111401
1515639311,0.11995,-0.207123,-0.050241,-0.057157,-0.831832,-1.155178
1515639311,0.088041,-0.163804,-0.018232,0.048634,-0.837386,-1.253229
1515639311,0.059101,-0.12683,0.001859,0.165806,-0.807656,-1.402302
1515639311,0.037249,-0.096612,0.011671,0.277253,-0.73963,-1.57468
1515639311,0.013184,-0.072405,0.011093,0.359474,-0.630397,-1.711731
1515639311,-0.001911,-0.040792,-0.000615,0.412893,-0.522579,-1.757115
1515639311,-0.012158,-0.024324,-0.027786,0.463923,-0.492662,-1.689808
1515639311,-0.011627,-0.038584,-0.064597,0.526664,-0.563892,-1.539748
1515639311,-0.00749,-0.064462,-0.090155,0.596574,-0.71272,-1.38253
1515639311,-0.009017,-0.088089,-0.080066,0.659442,-0.795703,-1.207997
1515639311,-0.016174,-0.104181,-0.032102,0.733365,-0.919937,-1.107185
1515639311,-0.02647,-0.118341,0.000118,0.823481,-1.063126,-1.045884
1515639311,-0.061828,-0.12554,0.029357,0.902354,-1.154065,-1.069661
1515639311,-0.039593,-0.09643,0.03828,0.912121,-1.17197,-1.121966
1515639311,0.000898,-0.070404,0.045793,0.895951,-1.158202,-1.138976
1515639311,0.063979,-0.048113,0.05722,0.899217,-1.161506,-1.080354
1515639311,0.109906,-0.022492,0.06876,0.88188,-1.241582,-0.982604
1515639311,0.132673,-0.027966,0.065579,0.804029,-1.361368,-0.879712
1515639311,0.153655,-0.049889,0.042161,0.689606,-1.455844,-0.787404
1515639311,0.161835,-0.057845,0.02854,0.630263,-1.50313,-0.719393
1515639311,0.157217,-0.066795,0.037342,0.652084,-1.54674,-0.650258
1515639311,0.156532,-0.071329,0.051396,0.723151,-1.597604,-0.550217
1515639312,0.178868,-0.06444,0.05246,0.798999,-1.697497,-0.387471
1515639312,0.216659,-0.07741,0.03559,0.851565,-1.819877,-0.217365
1515639312,0.251055,-0.121555,0.028337,0.871128,-1.846665,-0.083141
1515639312,0.258312,-0.188001,0.022229,0.849272,-1.79478,-0.039235
1515639312,0.235696,-0.260878,-0.004794,0.807154,-1.64179,-0.078085
1515639312,0.177279,-0.317563,-0.008533,0.811043,-1.387426,-0.154886
1515639312,0.096872,-0.346417,-0.00149,0.894904,-1.117642,-0.258235
1515639312,-0.008643,-0.332976,-0.010884,1.015973,-0.938023,-0.374725
1515639312,-0.134247,-0.283835,-0.036358,1.102995,-0.881986,-0.484267
1515639312,-0.256847,-0.20933,-0.05256,1.180535,-0.945293,-0.509004
1515639312,-0.30904,-0.131518,-0.058804,1.264057,-1.17689,-0.404353
1515639312,-0.237079,-0.091789,-0.094298,1.380261,-1.575569,-0.162832
1515639312,-0.086237,-0.113336,-0.149706,1.547449,-1.943112,0.082038
1515639312,0.080237,-0.169858,-0.196396,1.780997,-2.217528,0.222836
1515639312,0.180548,-0.227117,-0.253509,2.047484,-2.478727,0.243235
1515639312,0.222947,-0.266605,-0.295593,2.278704,-2.633614,0.191552
1515639312,0.25009,-0.284099,-0.319889,2.429191,-2.727292,0.139008
1515639312,0.241558,-0.203555,-0.320941,2.556295,-2.607693,0.245089
1515639312,0.177558,0.187183,-0.178397,3.076673,-2.151503,0.641613
1515639312,0.057031,1.221458,-0.25514,2.508719,-2.845564,0.913606
1515639312,-0.167509,2.714886,-0.690911,0.141364,-4.097083,0.947973
1515639312,-0.202467,3.681625,0.676623,0.192304,-3.867021,0.448932
1515639312,0.191175,2.545719,1.151354,0.527299,-2.74923,-0.158353
1515639312,0.297224,0.61891,0.165084,0.942412,-1.716041,-0.294733
1515639312,0.454263,-0.149661,-0.493374,1.178661,-1.180796,-0.304198
1515639312,0.632081,-0.485419,-0.597824,1.196029,-0.664774,-0.366084
1515639312,0.700387,-0.723571,-0.438082,1.08621,-0.467731,-0.303511
1515639312,0.603327,-0.874369,-0.356553,0.984642,-0.672848,-0.148736
1515639312,0.449427,-0.885206,-0.309708,0.799176,-0.711499,0.01093
1515639312,0.340364,-0.786584,-0.207399,0.50575,-0.527441,0.173572
1515639312,0.216902,-0.597593,-0.114305,0.395589,-0.183745,0.282574
1515639312,0.041275,-0.299465,-0.057922,0.584703,0.037432,0.30274
1515639312,-0.173711,-0.049354,-0.040557,0.568845,0.238354,0.297144
1515639312,-0.319782,0.116483,0.044886,0.195864,0.353261,0.268643
1515639312,-0.329661,0.279225,0.182265,0.23917,-0.146126,0.177107
1515639312,-0.295223,0.377482,0.258932,0.578281,-1.176533,0.053735
1515639312,-0.279923,0.377515,0.260495,0.749872,-1.792152,-0.041403
1515639312,-0.269401,0.275219,0.204957,0.770587,-1.515125,-0.221514
1515639312,-0.287094,0.111795,0.104451,0.814834,-1.027155,-0.507374
1515639312,-0.306334,0.015156,0.043783,0.860681,-0.697866,-0.691528
1515639312,-0.333249,-0.049351,0.013057,0.807458,-0.610892,-0.724252
1515639312,-0.346464,-0.125398,-0.056247,0.663878,-0.567184,-0.664445
1515639312,-0.336461,-0.206214,-0.109781,0.489073,-0.497161,-0.56297
1515639312,-0.281563,-0.252648,-0.142347,0.308792,-0.519831,-0.400038
1515639312,-0.185085,-0.246727,-0.171423,0.155219,-0.649823,-0.209806
1515639312,-0.107809,-0.209108,-0.173119,0.055741,-0.73807,-0.000191
1515639312,-0.050594,-0.166646,-0.15148,0.034085,-0.809826,0.163683
1515639312,0.010062,-0.104265,-0.128386,0.078373,-0.85749,0.191231
1515639312,0.074468,-0.029855,-0.103032,0.141015,-0.930318,0.112083
1515639312,0.113768,0.051324,-0.08395,0.168383,-1.000218,0.053181
1515639312,0.12829,0.140695,-0.064366,0.134277,-1.118458,0.053757
1515639312,0.125177,0.225097,-0.036981,0.125606,-1.216301,0.033105
1515639312,0.101926,0.279743,0.001099,0.122658,-1.242893,0.028733
1515639312,0.0626,0.281138,0.023106,0.080539,-1.196381,0.045957
1515639312,0.042804,0.220426,0.008114,0.018549,-1.086102,0.030378
1515639312,0.021764,0.121625,-0.021424,-0.042961,-0.918269,-0.039338
1515639312,-0.014808,0.020346,-0.056805,-0.049697,-0.779856,-0.132603
1515639312,-0.058916,-0.063106,-0.087997,-0.009472,-0.634848,-0.197032
1515639312,-0.088973,-0.113408,-0.10886,0.074406,-0.47263,-0.236853
1515639312,-0.085482,-0.130164,-0.117475,0.152171,-0.33822,-0.222417
1515639312,-0.070536,-0.133757,-0.118722,0.227893,-0.321917,-0.181803
1515639312,-0.073951,-0.127979,-0.114483,0.267974,-0.37499,-0.124429
1515639312,-0.078522,-0.109072,-0.111944,0.254085,-0.482585,-0.069427
1515639312,-0.069272,-0.083558,-0.112701,0.213874,-0.629689,-0.018865
1515639312,-0.056013,-0.05437,-0.106931,0.164946,-0.75981,0.021099
1515639312,-0.038522,-0.024608,-0.100532,0.129358,-0.834509,0.044236
1515639312,-0.017841,0.008965,-0.095965,0.108408,-0.877181,0.047251
1515639312,-0.006252,0.035398,-0.097676,0.105646,-0.922913,0.041736
1515639312,-0.001639,0.049296,-0.104698,0.121866,-0.943006,0.032068
1515639312,0.012259,0.059656,-0.102805,0.128271,-0.942943,0.020345
1515639312,0.029621,0.063369,-0.098434,0.096069,-0.927206,0.034252
1515639312,0.030413,0.056168,-0.092481,0.036978,-0.893548,0.049284
1515639312,0.018111,0.048766,-0.07513,-0.023335,-0.844973,0.051584
1515639312,0.000587,0.043575,-0.050686,-0.076305,-0.782521,0.046479
1515639312,-0.020211,0.033249,-0.03083,-0.119773,-0.70831,0.036093
1515639312,-0.038207,0.023847,-0.017703,-0.151353,-0.647862,0.03099
1515639312,-0.052304,0.012524,-0.017713,-0.179268,-0.634203,0.037431
1515639312,-0.05944,-0.000196,-0.025446,-0.199242,-0.667308,0.047949
1515639312,-0.059865,-0.011257,-0.032088,-0.213564,-0.73125,0.066873
1515639312,-0.058817,-0.016982,-0.036051,-0.219229,-0.805806,0.102817
1515639312,-0.059357,-0.019225,-0.035592,-0.218518,-0.876109,0.156906
1515639312,-0.066435,-0.021548,-0.034742,-0.216702,-0.949617,0.218445
1515639312,-0.076613,-0.022552,-0.031875,-0.227928,-1.000854,0.272602
1515639312,-0.091428,-0.019352,-0.024119,-0.245919,-1.015966,0.325837
1515639312,-0.108739,-0.014947,-0.014002,-0.273758,-1.007729,0.377029
1515639312,-0.129374,-0.007171,0.000038,-0.298646,-0.97393,0.416597
1515639312,-0.15348,-0.001728,0.006427,-0.339962,-0.899778,0.439262
1515639312,-0.16894,0.003454,0.008356,-0.395395,-0.80232,0.467344
1515639312,-0.189551,0.00285,0.001391,-0.444237,-0.723928,0.472963
1515639312,-0.201942,-0.000353,0.000648,-0.498639,-0.624263,0.468006
1515639312,-0.216136,-0.003609,0.003827,-0.546147,-0.464998,0.466494
1515639312,-0.238925,-0.003486,-0.004262,-0.566855,-0.424647,0.44106
1515639312,-0.279272,-0.017624,-0.019383,-0.583759,-0.44696,0.391925
1515639312,-0.302998,-0.039822,-0.034827,-0.591547,-0.530747,0.271119
1515639312,-0.30011,-0.070102,-0.061281,-0.573563,-0.629193,0.111887
1515639312,-0.269271,-0.08501,-0.076672,-0.515913,-0.632716,-0.066134
1515639312,-0.209474,-0.071131,-0.075556,-0.409551,-0.591294,-0.243952
1515639312,-0.128573,-0.041685,-0.067286,-0.288536,-0.515877,-0.368322
1515639312,-0.047469,-0.012243,-0.049854,-0.212215,-0.453738,-0.374431
1515639312,0.003822,-0.00495,-0.027583,-0.183358,-0.557043,-0.235176
1515639313,-0.013541,-0.063832,-0.007591,-0.155576,-0.875317,-0.031754
1515639313,-0.10423,-0.15824,0.009069,-0.114904,-1.311489,0.138154
1515639313,-0.206436,-0.221236,0.020334,-0.081639,-1.649678,0.222097
1515639313,-0.27569,-0.226198,0.0275,-0.05609,-1.748472,0.23877
1515639313,-0.327163,-0.145567,0.042058,-0.010032,-1.650373,0.241317
1515639313,-0.392378,-0.006281,0.058671,0.058171,-1.522364,0.240797
1515639313,-0.46148,0.126977,0.053485,0.117572,-1.587932,0.233103
1515639313,-0.514137,0.23997,0.044513,0.159844,-1.869446,0.205342
1515639313,-0.537536,0.327058,0.058487,0.165302,-2.210715,0.166659
1515639313,-0.50476,0.337253,0.102518,0.11667,-2.484236,0.135689
1515639313,-0.394287,0.279203,0.125994,0.05218,-2.666367,0.09975
1515639313,-0.243059,0.233587,0.155278,-0.00656,-2.780415,0.064084
1515639313,-0.095589,0.24018,0.195975,-0.030393,-2.858102,0.024314
1515639313,0.030499,0.272672,0.193217,-0.031309,-2.877094,-0.045057
1515639313,0.127757,0.294342,0.135278,-0.097439,-2.894248,-0.158165
1515639313,0.183795,0.291239,0.075987,-0.206218,-2.921208,-0.269196
1515639313,0.207437,0.249947,0.07041,-0.327127,-2.907921,-0.327828
1515639313,0.215477,0.18495,0.065055,-0.423008,-2.826639,-0.303028
1515639313,0.201503,0.125543,0.007067,-0.475268,-2.614405,-0.230774
1515639313,0.171057,0.078897,-0.043065,-0.508602,-2.2637,-0.209127
1515639313,0.136591,0.044974,-0.064838,-0.50797,-1.894488,-0.302533
1515639313,0.092716,0.020635,-0.053197,-0.46349,-1.53234,-0.441781
1515639313,0.053723,0.009639,-0.04655,-0.432471,-1.214922,-0.578011
1515639313,0.036233,-0.00182,-0.070757,-0.441612,-1.049905,-0.680762
1515639313,0.040966,-0.030506,-0.100942,-0.433401,-1.017839,-0.731801
1515639313,0.059232,-0.056963,-0.137544,-0.389574,-1.019713,-0.732854
1515639313,0.085392,-0.083625,-0.191319,-0.342367,-1.037597,-0.704122
1515639313,0.116473,-0.126886,-0.233224,-0.294097,-1.055457,-0.678585
1515639313,0.142377,-0.178407,-0.250746,-0.261149,-1.037206,-0.666767
1515639313,0.157599,-0.214863,-0.241568,-0.238539,-0.945602,-0.673852
1515639313,0.153365,-0.219504,-0.210788,-0.215009,-0.840111,-0.707532
1515639313,0.135659,-0.194448,-0.1768,-0.17717,-0.77811,-0.753107
1515639313,0.109968,-0.16887,-0.144318,-0.134562,-0.768135,-0.81914
1515639313,0.086418,-0.144659,-0.115615,-0.117665,-0.751894,-0.904353
1515639313,0.064514,-0.117852,-0.108302,-0.190354,-0.753175,-0.993943
1515639313,0.051259,-0.107474,-0.107742,-0.264231,-0.742741,-1.093081
1515639313,0.035086,-0.112393,-0.069027,-0.254118,-0.688253,-1.181343
1515639313,0.014348,-0.119235,-0.043688,-0.195015,-0.617525,-1.270581
1515639313,-0.002614,-0.114131,-0.044844,-0.132823,-0.535067,-1.365101
1515639313,-0.024652,-0.097198,-0.036802,-0.078693,-0.502629,-1.46409
1515639313,-0.060523,-0.076689,-0.023029,-0.051471,-0.559685,-1.551719
1515639313,-0.092352,-0.061097,-0.005049,-0.098036,-0.719281,-1.636601
1515639313,-0.103635,-0.043342,0.0147,-0.164622,-1.015185,-1.699658
1515639313,-0.093653,0.000723,0.034388,-0.155523,-1.399073,-1.687334
1515639313,-0.05474,0.064306,0.025425,-0.08642,-1.796613,-1.592946
1515639313,0.015092,0.11624,-0.011657,-0.062554,-2.045624,-1.461741
1515639313,0.113549,0.129235,-0.024176,-0.101866,-2.172637,-1.362061
1515639313,0.201403,0.101566,-0.017833,-0.18451,-2.131782,-1.296906
1515639313,0.244832,0.063766,-0.027151,-0.30697,-1.845384,-1.290491
1515639313,0.241283,0.031037,-0.015637,-0.449872,-1.220745,-1.352017
1515639313,0.2081,-0.004747,0.016721,-0.539048,-0.629715,-1.455224
1515639313,0.146277,-0.039155,0.034963,-0.494418,-0.39201,-1.586443
1515639313,0.088735,-0.059808,0.052989,-0.363526,-0.338041,-1.607486
1515639313,0.026848,-0.065472,0.085174,-0.165202,-0.400873,-1.536217
1515639313,-0.005685,-0.05737,0.067709,0.015198,-0.594749,-1.405782
1515639313,-0.00261,-0.049038,0.026362,0.142901,-0.750785,-1.211256
1515639313,0.025131,-0.07068,0.002259,0.207546,-0.797573,-1.045104
1515639313,0.069711,-0.117123,-0.020654,0.228945,-0.79657,-0.964068
1515639313,0.123116,-0.178951,-0.03966,0.221126,-0.758481,-0.899957
1515639313,0.188304,-0.226639,-0.055683,0.254894,-0.713682,-0.873109
1515639313,0.257028,-0.247434,-0.074166,0.313873,-0.626133,-0.870595
1515639313,0.312129,-0.258561,-0.069404,0.37914,-0.525791,-0.871227
1515639313,0.346716,-0.271088,-0.050145,0.445238,-0.398947,-0.835508
1515639313,0.354291,-0.274066,-0.014644,0.517482,-0.243434,-0.761291
1515639313,0.34465,-0.253652,0.00474,0.588926,-0.113535,-0.647732
1515639313,0.307822,-0.212174,-0.002259,0.638192,-0.009334,-0.514031
1515639313,0.257641,-0.180874,-0.012934,0.656479,0.093653,-0.394211
1515639313,0.200301,-0.172194,-0.009379,0.66627,0.189233,-0.310669
1515639313,0.153433,-0.169452,0.01638,0.674866,0.295543,-0.26866
1515639313,0.126495,-0.165486,0.047341,0.72957,0.385112,-0.235226
1515639313,0.105276,-0.152211,0.057165,0.825429,0.418538,-0.194536
1515639313,0.083235,-0.137689,0.03686,0.947681,0.376559,-0.131748
1515639313,0.066732,-0.141237,0.007452,1.064941,0.298393,-0.063774
1515639313,0.062352,-0.154785,-0.004142,1.178009,0.21273,0.011627
1515639313,0.062558,-0.164447,0.002193,1.282494,0.131245,0.097701
1515639313,0.056383,-0.168407,0.016626,1.384889,0.045463,0.198683
1515639313,0.040053,-0.170108,0.035794,1.506274,-0.014709,0.308304
1515639313,0.019498,-0.163859,0.071147,1.671129,-0.03957,0.434079
1515639313,-0.005947,-0.16577,0.112111,1.886942,-0.030128,0.566411
1515639313,-0.027307,-0.16011,0.115253,2.052912,-0.061291,0.660179
1515639313,-0.053074,-0.080237,0.062518,2.05055,-0.147465,0.674761
1515639313,-0.126944,0.204283,0.087014,1.764213,-0.048769,0.50978
1515639313,-0.342975,1.03493,0.259466,0.802319,0.166042,-0.049506
1515639313,-0.89504,2.342263,0.01452,-0.211753,-0.594838,-0.048777
1515639313,-1.549417,2.968995,-0.052117,-0.253904,-1.723526,0.470117
1515639313,-1.506239,2.352327,0.731995,-0.399226,-3.363197,0.483725
1515639313,-0.459928,0.903797,0.744631,0.122024,-3.023785,0.32116
1515639313,0.480502,0.073803,0.084674,0.547377,-1.077727,0.02747
1515639313,0.970922,-0.298745,-0.477134,0.466264,0.758,-0.258374
1515639313,1.161916,-0.705332,-0.726952,0.316704,1.627177,-0.310394
1515639313,1.129261,-1.050163,-0.658498,0.388835,1.80455,-0.026073
1515639313,1.019718,-1.115952,-0.458329,0.566763,1.766431,0.353381
1515639313,0.916323,-0.922632,-0.32791,0.637063,1.589431,0.732222
1515639313,0.786876,-0.715814,-0.263126,0.663983,1.254975,1.034724
1515639313,0.599753,-0.535334,-0.231051,0.745138,0.940265,1.215804
1515639313,0.346314,-0.293329,-0.248892,0.801897,0.711793,1.283143
1515639313,0.076408,-0.020472,-0.276881,0.747477,0.592486,1.228266
1515639313,-0.181432,0.270465,-0.239247,0.650456,0.561505,1.043665
1515639313,-0.428447,0.548328,-0.139627,0.732132,0.399474,0.951372
1515639314,-0.61529,0.680045,-0.02589,0.851456,0.220263,1.026401
1515639314,-0.636346,0.620835,0.127112,0.794316,0.154389,0.857673
1515639314,-0.484478,0.420541,0.195833,0.648901,0.141823,0.400208
1515639314,-0.404777,0.180386,0.203608,0.676347,0.158744,0.034623
1515639314,-0.409035,0.010458,0.158941,0.805681,0.035495,-0.158769
1515639314,-0.400543,-0.096872,0.064161,0.751623,-0.016589,-0.303987
1515639314,-0.376542,-0.190552,-0.02798,0.623379,-0.019228,-0.403204
1515639314,-0.306981,-0.268212,-0.092346,0.555414,-0.061134,-0.392748
1515639314,-0.181054,-0.287826,-0.114957,0.517754,-0.137158,-0.258746
1515639314,-0.051562,-0.276397,-0.098596,0.498657,-0.250462,-0.047058
1515639314,0.063656,-0.248002,-0.07524,0.506266,-0.360535,0.210493
1515639314,0.167569,-0.196005,-0.065612,0.505716,-0.403546,0.421405
1515639314,0.259227,-0.131408,-0.068915,0.488811,-0.416697,0.551405
1515639314,0.314765,-0.044632,-0.078614,0.452214,-0.494723,0.632096
1515639314,0.331395,0.051417,-0.077928,0.414732,-0.704463,0.641897
1515639314,0.320299,0.142774,-0.056998,0.381049,-0.976832,0.605606
1515639314,0.285347,0.202788,-0.028391,0.345666,-1.18639,0.539718
1515639314,0.228149,0.214067,0.002249,0.300868,-1.197171,0.499147
1515639314,0.15518,0.180897,0.017825,0.241481,-1.026213,0.463558
1515639314,0.104326,0.136845,0.006977,0.153259,-0.747979,0.409194
1515639314,0.057846,0.083141,-0.027318,0.075054,-0.511148,0.353605
1515639314,0.00894,0.03053,-0.065237,0.033919,-0.349633,0.307326
1515639314,-0.012042,0.005082,-0.089998,0.028418,-0.22722,0.242784
1515639314,-0.012052,0.008704,-0.103382,0.075312,-0.110788,0.133468
1515639314,-0.007824,0.018539,-0.106423,0.16483,0.018603,0.045545
1515639314,-0.007051,0.00935,-0.099029,0.248942,0.156377,0.003498
1515639314,0.008534,-0.0035,-0.093342,0.303755,0.23326,0.003832
1515639314,0.021913,-0.012848,-0.095061,0.340958,0.253661,0.010327
1515639314,0.026236,-0.019948,-0.083131,0.332998,0.304583,0.045708
1515639314,0.039503,-0.029388,-0.067313,0.301809,0.32769,0.093759
1515639314,0.050755,-0.036347,-0.053178,0.266698,0.315634,0.162988
1515639314,0.054188,-0.042303,-0.040929,0.227502,0.284406,0.237471
1515639314,0.057014,-0.040486,-0.031922,0.194815,0.242607,0.298054
1515639314,0.046128,-0.03422,-0.029085,0.173923,0.196619,0.360758
1515639314,0.029879,-0.023362,-0.028182,0.154646,0.203828,0.416214
1515639314,0.007504,-0.016081,-0.03081,0.136097,0.246133,0.467543
1515639314,-0.022468,-0.016223,-0.034083,0.110813,0.320351,0.503009
1515639314,-0.049644,-0.018499,-0.02833,0.079628,0.450926,0.531239
1515639314,-0.081325,-0.019102,-0.016204,0.046216,0.591051,0.558437
1515639314,-0.119307,-0.018937,-0.005271,0.017966,0.750329,0.591043
1515639314,-0.154709,-0.020265,0.010344,0.003767,0.892684,0.621457
1515639314,-0.187207,-0.019057,0.024581,-0.003641,0.995754,0.641056
1515639314,-0.210762,-0.016589,0.03388,-0.009638,1.063733,0.662648
1515639314,-0.231347,-0.009516,0.040269,-0.011626,1.049842,0.681777
1515639314,-0.250431,-0.007805,0.055467,-0.010425,0.92752,0.695146
1515639314,-0.258518,-0.015807,0.064333,-0.006398,0.733982,0.709303
1515639314,-0.271658,-0.021031,0.072564,-0.012909,0.52652,0.730855
1515639314,-0.292101,-0.026886,0.074141,-0.038287,0.281725,0.747981
1515639314,-0.306723,-0.030976,0.070039,-0.055695,0.095491,0.760018
1515639314,-0.329673,-0.020162,0.085271,-0.065643,0.018908,0.747984
1515639314,-0.345423,-0.015135,0.099174,-0.098841,0.026174,0.742667
1515639314,-0.358922,-0.024544,0.119157,-0.164626,0.088536,0.734351
1515639314,-0.366884,-0.037533,0.145786,-0.247439,0.142351,0.711074
1515639314,-0.378742,-0.062415,0.170944,-0.356461,0.254471,0.711476
1515639314,-0.399298,-0.084744,0.198815,-0.463049,0.335794,0.69043
1515639314,-0.415812,-0.089218,0.194118,-0.591315,0.339357,0.670128
1515639314,-0.447085,-0.078628,0.1227,-0.770998,0.134316,0.592463
1515639314,-0.455787,-0.0123,-0.028491,-0.980812,-0.273743,0.394571
1515639314,-0.455913,0.191716,-0.144368,-0.978794,-0.494291,0.109045
1515639314,-0.429454,0.480256,-0.060343,-0.572121,-0.253759,-0.361004
1515639314,-0.209333,0.544145,0.102089,-0.243802,0.01537,-0.973826
1515639314,0.094625,0.263087,0.065362,-0.335628,-0.218726,-1.148578
1515639314,0.211997,-0.035496,-0.027161,-0.628405,-0.864287,-0.933829
1515639314,0.325695,-0.064376,-0.007883,-0.927935,-1.690798,-0.667572
1515639314,0.316932,0.057002,0.015178,-1.193499,-2.388279,-0.467942
1515639314,0.115861,0.198966,-0.001169,-1.405226,-2.695958,-0.38719
1515639314,-0.047481,0.340482,-0.015893,-1.520917,-2.667831,-0.421247
1515639314,-0.132208,0.45888,-0.02775,-1.540931,-2.373185,-0.496829
1515639314,-0.157066,0.533205,-0.031558,-1.569507,-1.965936,-0.543183
1515639314,-0.124655,0.541237,-0.059132,-1.671354,-1.713373,-0.56674
1515639314,-0.049956,0.470037,-0.103841,-1.814161,-1.533384,-0.574615
1515639314,0.016991,0.376011,-0.111798,-1.911201,-1.334044,-0.552536
1515639314,0.057593,0.273708,-0.118569,-1.910122,-1.115023,-0.526071
1515639314,0.086903,0.200793,-0.101046,-1.801054,-0.903855,-0.512378
1515639314,0.098994,0.142561,-0.072562,-1.612014,-0.785779,-0.517145
1515639314,0.111919,0.081486,-0.06167,-1.413324,-0.780373,-0.525559
1515639314,0.140663,0.040826,-0.066133,-1.284286,-0.864672,-0.542893
1515639314,0.186789,0.033856,-0.076135,-1.19484,-0.943855,-0.569819
1515639314,0.230362,0.017798,-0.089482,-1.125642,-1.02745,-0.579716
1515639314,0.24518,-0.034271,-0.127898,-1.110922,-1.114469,-0.6291
1515639314,0.258448,-0.095937,-0.164054,-1.118943,-1.169755,-0.655977
1515639314,0.239306,-0.134683,-0.203619,-1.139367,-1.268673,-0.703292
1515639314,0.215754,-0.161329,-0.241522,-1.151539,-1.33877,-0.775006
1515639314,0.202944,-0.187379,-0.2622,-1.141798,-1.356558,-0.880615
1515639314,0.201968,-0.201484,-0.265335,-1.113772,-1.277459,-0.987957
1515639314,0.205461,-0.215665,-0.251057,-1.066261,-1.113249,-1.055502
1515639314,0.215189,-0.220939,-0.247911,-0.984747,-0.926638,-1.071772
1515639314,0.228216,-0.217782,-0.249507,-0.843685,-0.709932,-1.077232
1515639314,0.250767,-0.212708,-0.231805,-0.656553,-0.505729,-1.080588
1515639314,0.273883,-0.216744,-0.212111,-0.462674,-0.335534,-1.081948
1515639314,0.283924,-0.217609,-0.197412,-0.286742,-0.188786,-1.101531
1515639314,0.282604,-0.211067,-0.17576,-0.135419,-0.038977,-1.125377
1515639314,0.272987,-0.204697,-0.15554,-0.016019,0.096841,-1.157824
1515639314,0.263876,-0.197785,-0.148175,0.056801,0.187752,-1.203267
1515639314,0.253105,-0.185304,-0.142025,0.090588,0.226362,-1.26173
1515639314,0.235474,-0.163439,-0.134618,0.090337,0.248826,-1.310673
1515639314,0.191287,-0.137842,-0.115768,0.069762,0.27638,-1.320167
1515639314,0.146301,-0.103696,-0.085578,0.047778,0.339009,-1.328457
1515639314,0.117994,-0.078898,-0.05261,0.079273,0.400674,-1.240776
1515639315,0.06902,-0.09162,-0.017801,0.175254,0.426438,-1.103104
1515639315,0.075246,-0.118364,0.006963,0.269255,0.324668,-1.007521
1515639315,0.102815,-0.161217,0.017922,0.29921,0.215135,-0.931188
1515639315,0.138277,-0.207161,0.013024,0.289997,0.067136,-0.87635
1515639315,0.186694,-0.244582,-0.003175,0.283088,-0.100915,-0.886624
1515639315,0.224609,-0.268667,-0.026406,0.311004,-0.112549,-0.844015
1515639315,0.259443,-0.268191,-0.038619,0.350829,-0.033593,-0.855404
1515639315,0.307281,-0.269407,-0.073163,0.411493,0.098708,-0.892157
1515639315,0.32055,-0.271389,-0.066592,0.54541,0.283366,-0.852975
1515639315,0.322441,-0.232867,-0.034454,0.701121,0.429636,-0.711592
1515639315,0.317337,-0.177053,0.011246,0.728056,0.638705,-0.45702
1515639315,0.27926,-0.1297,0.058923,0.638432,0.746134,-0.221029
1515639315,0.204328,-0.099031,0.111307,0.49417,0.865084,-0.040451
1515639315,0.108385,-0.052904,0.150182,0.366348,0.829032,0.059554
1515639315,0.000833,0.032705,0.167054,0.229647,0.715388,0.118734
1515639315,-0.109203,0.124899,0.185276,0.159753,0.541646,0.116938
1515639315,-0.17401,0.186537,0.208128,0.284791,0.538171,0.087132
1515639315,-0.161064,0.180545,0.211122,0.573377,0.748261,0.089178
1515639315,-0.058574,0.065639,0.174017,0.85105,0.874181,0.135658
1515639315,0.072439,-0.109123,0.111908,1.071623,0.830629,0.202751
1515639315,0.156778,-0.251701,0.051873,1.225332,0.744006,0.333602
1515639315,0.171495,-0.354066,0.009461,1.325881,0.631491,0.495241
1515639315,0.156647,-0.407508,-0.04191,1.393995,0.558109,0.678349
1515639315,0.122209,-0.409975,-0.078918,1.477571,0.542276,0.838236
1515639315,0.086943,-0.386034,-0.079822,1.587653,0.546841,0.975827
1515639315,0.049337,-0.289635,-0.061007,1.653098,0.526689,1.118631
1515639315,-0.010623,0.050805,0.015314,1.392035,0.568491,1.251933
1515639315,-0.190093,1.041893,0.08063,0.063591,0.58176,0.949656
1515639315,-0.737925,2.509515,-0.312598,-1.064358,0.84336,0.448051
1515639315,-1.412801,3.161758,0.211387,-0.9402,0.593534,0.252016
1515639315,-1.475732,2.461308,1.036872,-0.766162,-1.936312,-0.32094
1515639315,-0.585834,0.902272,0.912164,0.439341,-2.296869,-0.539292
1515639315,0.139277,0.016878,0.263474,1.20773,-1.098558,-0.365675
1515639315,0.595355,-0.306166,-0.354323,1.112909,0.410733,-0.236
1515639315,0.873195,-0.616975,-0.713257,0.720157,1.46316,-0.107233
1515639315,0.899672,-0.933492,-0.69989,0.572127,1.970156,0.11221
1515639315,0.818469,-1.024483,-0.486125,0.632488,1.813871,0.239536
1515639315,0.75108,-0.867099,-0.353931,0.659218,1.493486,0.432289
1515639315,0.688962,-0.666472,-0.245826,0.659596,1.249339,0.70529
1515639315,0.632703,-0.464492,-0.192664,0.682908,1.061785,0.934821
1515639315,0.522233,-0.283864,-0.160344,0.706112,0.991373,1.088061
1515639315,0.344613,-0.090135,-0.12669,0.613052,1.007576,1.211746
1515639315,0.133672,0.130289,-0.07116,0.439797,0.919141,1.318983
1515639315,-0.091388,0.337932,0.020649,0.393658,0.616583,1.438214
1515639315,-0.287002,0.491549,0.073452,0.46804,0.224447,1.502773
1515639315,-0.40914,0.582785,0.130695,0.576218,0.082835,1.38179
1515639315,-0.424894,0.546973,0.193093,0.684759,0.223446,1.080707
1515639315,-0.364167,0.315995,0.184168,0.785944,0.457742,0.718164
1515639315,-0.32632,0.045566,0.120811,0.876741,0.550602,0.330531
1515639315,-0.357046,-0.129045,0.039924,0.917751,0.491046,-0.036417
1515639315,-0.390669,-0.227923,-0.043353,0.867978,0.428772,-0.371437
1515639315,-0.366359,-0.270294,-0.081707,0.77387,0.427592,-0.559115
1515639315,-0.288073,-0.26347,-0.070899,0.691375,0.342996,-0.511521
1515639315,-0.180729,-0.22617,-0.047967,0.588579,0.15689,-0.301234
1515639315,-0.072318,-0.181734,-0.020633,0.464553,-0.04013,-0.02384
1515639315,0.015553,-0.144537,-0.013413,0.380973,-0.223006,0.217385
1515639315,0.095399,-0.107691,-0.02786,0.358874,-0.359609,0.375673
1515639315,0.163833,-0.052366,-0.055044,0.386843,-0.486097,0.417821
1515639315,0.203313,0.020043,-0.084512,0.422333,-0.619845,0.395979
1515639315,0.213237,0.099641,-0.101775,0.417196,-0.752694,0.345338
1515639315,0.215671,0.161714,-0.08571,0.357656,-0.784863,0.3132
1515639315,0.205785,0.188307,-0.046908,0.264887,-0.695006,0.315648
1515639315,0.19165,0.178509,0.001013,0.180778,-0.507264,0.324893
1515639315,0.173326,0.138702,0.019095,0.110257,-0.398127,0.323165
1515639315,0.141631,0.080439,0.005421,0.054144,-0.341049,0.328694
1515639315,0.112874,0.03156,-0.012279,0.003199,-0.265881,0.349227
1515639315,0.092081,-0.001921,-0.029894,-0.021401,-0.154347,0.346465
1515639315,0.070407,-0.012524,-0.044501,-0.012814,-0.050026,0.323434
1515639315,0.049858,-0.006236,-0.05061,0.0425,0.082275,0.273886
1515639315,0.027282,0.002001,-0.052417,0.117781,0.248733,0.218088
1515639315,0.01596,0.009269,-0.058533,0.179993,0.441653,0.181577
1515639315,0.005796,0.005524,-0.067112,0.208456,0.590698,0.183255
1515639315,0.013525,-0.004691,-0.074534,0.20849,0.69804,0.213535
1515639315,0.0205,-0.01591,-0.066765,0.192897,0.764863,0.252175
1515639315,0.017723,-0.031692,-0.046914,0.153983,0.81343,0.308853
1515639315,0.011652,-0.05201,-0.032986,0.111115,0.830037,0.381392
1515639315,-0.000218,-0.076011,-0.024629,0.07959,0.778674,0.44087
1515639315,-0.011731,-0.09529,-0.023456,0.059002,0.700821,0.486389
1515639315,-0.027411,-0.09832,-0.028846,0.046925,0.626224,0.526597
1515639315,-0.051343,-0.083399,-0.042962,0.050793,0.560228,0.563646
1515639315,-0.084391,-0.055506,-0.057425,0.068472,0.50178,0.591139
1515639315,-0.122753,-0.027395,-0.061859,0.099106,0.539122,0.615823
1515639315,-0.158461,-0.003879,-0.051559,0.10871,0.650798,0.634399
1515639315,-0.197613,0.00487,-0.046466,0.092138,0.816571,0.648915
1515639315,-0.229857,-0.002146,-0.03885,0.063883,0.973833,0.635673
1515639315,-0.24815,-0.011155,-0.028429,0.023235,1.086389,0.608388
1515639315,-0.257596,-0.015489,-0.014975,-0.002793,1.124579,0.580809
1515639315,-0.253078,-0.024302,0.002539,-0.001168,1.066163,0.551791
1515639315,-0.238837,-0.028353,0.022031,0.01433,0.900398,0.538345
1515639315,-0.219887,-0.022826,0.04986,0.030672,0.650528,0.559738
1515639315,-0.199379,-0.004395,0.09047,0.042083,0.360149,0.605482
1515639315,-0.181636,0.017781,0.133681,0.029714,0.098316,0.671588
1515639315,-0.173314,0.022002,0.175495,-0.007841,-0.100933,0.74753
1515639315,-0.18017,0.011369,0.213268,-0.076724,-0.15675,0.801643
1515639315,-0.201441,-0.011295,0.245583,-0.179226,-0.053203,0.837189
1515639315,-0.245916,-0.034712,0.260009,-0.315398,0.105482,0.861214
1515639315,-0.31497,-0.050168,0.247661,-0.487695,0.242709,0.881941
1515639315,-0.393849,-0.067544,0.208503,-0.683918,0.311813,0.864001
1515639315,-0.448436,-0.080701,0.126349,-0.934707,0.164934,0.748155
1515639316,-0.463001,-0.025857,-0.013332,-1.187611,-0.21027,0.487474
1515639316,-0.463557,0.147416,-0.117554,-1.241212,-0.646876,0.134958
1515639316,-0.474112,0.399451,-0.077754,-0.920029,-0.843888,-0.344347
1515639316,-0.342023,0.519844,0.095154,-0.582659,-0.739377,-1.024983
1515639316,-0.034041,0.326572,0.136092,-0.726786,-0.76919,-1.375909
1515639316,0.152703,0.010384,0.046484,-1.177234,-0.918878,-1.22321
1515639316,0.25644,-0.078379,0.020897,-1.638566,-1.370903,-0.958725
1515639316,0.245939,0.013548,-0.011824,-1.942557,-1.852754,-0.74759
1515639316,0.075155,0.130795,-0.002208,-2.07381,-1.974976,-0.643668
1515639316,-0.114234,0.270537,-0.014849,-2.034838,-1.918343,-0.663677
1515639316,-0.242789,0.43156,-0.093506,-1.886021,-1.733338,-0.739621
1515639316,-0.271707,0.580222,-0.183654,-1.738026,-1.463302,-0.791768
1515639316,-0.198157,0.641439,-0.257,-1.663111,-1.255549,-0.768512
1515639316,-0.03179,0.565513,-0.294996,-1.701552,-1.250783,-0.629927
1515639316,0.163053,0.415904,-0.282919,-1.812954,-1.432611,-0.452675
1515639316,0.296576,0.304548,-0.2263,-1.861635,-1.691682,-0.284229
1515639316,0.346763,0.23195,-0.154275,-1.797529,-1.794737,-0.166278
1515639316,0.335264,0.155317,-0.086111,-1.66718,-1.682407,-0.133785
1515639316,0.287965,0.08606,-0.039637,-1.545201,-1.483765,-0.194763
1515639316,0.244625,0.053593,-0.01094,-1.435194,-1.265913,-0.311101
1515639316,0.215981,0.046372,0.004541,-1.319081,-1.016149,-0.420916
1515639316,0.215328,0.023813,0.007217,-1.177646,-0.734282,-0.56151
1515639316,0.230023,-0.034665,-0.031481,-1.047281,-0.522665,-0.69599
1515639316,0.220961,-0.097959,-0.108325,-0.958366,-0.442145,-0.802229
1515639316,0.206381,-0.152317,-0.176835,-0.882047,-0.383042,-0.879779
1515639316,0.210299,-0.198331,-0.214946,-0.80614,-0.282441,-0.966757
1515639316,0.225019,-0.230809,-0.249628,-0.725159,-0.262674,-1.038066
1515639316,0.21577,-0.249437,-0.266476,-0.624651,-0.270561,-1.056172
1515639316,0.201241,-0.246335,-0.256636,-0.508301,-0.258205,-1.051803
1515639316,0.195354,-0.238486,-0.253586,-0.41312,-0.266193,-1.040062
1515639316,0.18013,-0.229375,-0.248528,-0.360414,-0.302041,-1.043379
1515639316,0.161017,-0.222989,-0.217741,-0.318896,-0.286887,-1.053959
1515639316,0.148714,-0.211829,-0.169781,-0.270287,-0.233339,-1.096364
1515639316,0.15741,-0.196177,-0.127892,-0.205745,-0.169108,-1.122729
1515639316,0.163056,-0.178247,-0.095483,-0.137344,-0.172873,-1.165354
1515639316,0.175967,-0.158946,-0.087132,-0.084285,-0.244874,-1.170948
1515639316,0.163684,-0.142808,-0.08897,-0.045238,-0.414755,-1.192933
1515639316,0.163238,-0.125847,-0.115583,-0.040129,-0.608332,-1.171321
1515639316,0.133914,-0.118923,-0.145905,-0.049609,-0.730728,-1.152627
1515639316,0.13652,-0.111903,-0.176313,-0.0686,-0.756336,-1.153799
1515639316,0.138673,-0.113607,-0.194346,-0.054188,-0.699907,-1.146104
1515639316,0.136746,-0.108103,-0.173983,-0.002868,-0.591247,-1.10407
1515639316,0.115555,-0.108425,-0.10933,0.06828,-0.432566,-1.022378
1515639316,0.108417,-0.121484,-0.00496,0.14982,-0.355603,-0.990049
1515639316,0.125038,-0.138387,0.088712,0.229784,-0.225527,-0.934053
1515639316,0.152927,-0.169678,0.137338,0.285498,-0.129595,-0.886733
1515639316,0.206094,-0.197243,0.117062,0.312685,-0.067799,-0.868349
1515639316,0.258553,-0.219316,0.061883,0.323763,0.004442,-0.809421
1515639316,0.319721,-0.239516,-0.00309,0.34663,0.073537,-0.737706
1515639316,0.373998,-0.264977,-0.070331,0.421005,0.120565,-0.644729
1515639316,0.404982,-0.289635,-0.105079,0.535183,0.250731,-0.54181
1515639316,0.43457,-0.300651,-0.100184,0.681706,0.462878,-0.407636
1515639316,0.443916,-0.309148,-0.089911,0.828863,0.610143,-0.257725
1515639316,0.424517,-0.31117,-0.073346,0.926236,0.712467,-0.108015
1515639316,0.375318,-0.293584,-0.024985,0.924033,0.835497,0.034265
1515639316,0.306615,-0.252334,0.047466,0.818117,0.965377,0.17759
1515639316,0.194622,-0.173207,0.128005,0.610363,1.018166,0.291773
1515639316,0.042141,-0.043931,0.217167,0.387537,0.971001,0.359705
1515639316,-0.11088,0.10433,0.277135,0.247423,0.87759,0.397643
1515639316,-0.235814,0.22356,0.266669,0.332474,0.701609,0.361793
1515639316,-0.299965,0.295221,0.208325,0.672797,0.643121,0.282831
1515639316,-0.265673,0.258636,0.137886,1.069352,0.737952,0.268476
1515639316,-0.16875,0.080456,0.049139,1.286035,0.765577,0.359306
1515639316,-0.056753,-0.154454,-0.014711,1.37911,0.648931,0.445233
1515639316,0.026716,-0.306868,-0.017991,1.441954,0.563004,0.509948
1515639316,0.070906,-0.379502,-0.024519,1.491153,0.561026,0.570731
1515639316,0.081669,-0.381481,-0.052236,1.550127,0.54416,0.654911
1515639316,0.0849,-0.302976,-0.065406,1.611405,0.513319,0.82113
1515639316,0.047989,0.038716,-0.000982,1.408983,0.574322,1.079268
1515639316,-0.135685,1.031969,0.001451,0.046193,0.49586,0.800054
1515639316,-0.653824,2.447919,-0.38909,-0.958023,0.34539,0.362949
1515639316,-1.271059,3.115486,0.295028,-0.630749,-0.125872,0.316439
1515639316,-1.204186,2.448919,1.155046,-0.096884,-1.855351,-0.090023
1515639316,-0.320868,0.723718,0.764634,0.755264,-1.809649,-0.2728
1515639316,0.27728,-0.118751,0.1634,1.068431,-0.720158,-0.169136
1515639316,0.581746,-0.433671,-0.365903,0.78569,0.446676,-0.031327
1515639316,0.789729,-0.693194,-0.701761,0.41653,1.48869,0.055831
1515639316,0.855945,-0.886997,-0.722166,0.355639,2.036952,0.123035
1515639316,0.801028,-0.900665,-0.613333,0.554629,2.126134,0.223699
1515639316,0.691054,-0.780123,-0.50717,0.786238,1.943061,0.409636
1515639316,0.585988,-0.640618,-0.394129,0.893933,1.540099,0.642607
1515639316,0.510826,-0.493638,-0.254382,0.717006,0.959983,0.892852
1515639316,0.391252,-0.266602,-0.100826,0.465416,0.69016,1.064354
1515639316,0.174692,0.005414,-0.028538,0.169243,0.606306,1.186476
1515639316,-0.084705,0.218531,0.034102,-0.101102,0.50042,1.238161
1515639316,-0.33715,0.379395,0.128438,-0.146817,0.254646,1.174256
1515639316,-0.517858,0.493307,0.191981,0.006196,0.009026,1.073133
1515639316,-0.567908,0.493384,0.227176,0.221164,0.086317,0.830482
1515639316,-0.449462,0.373912,0.197579,0.482084,0.266251,0.458203
1515639316,-0.318532,0.139971,0.092592,0.854322,0.322176,0.17929
1515639316,-0.29909,-0.082077,-0.028466,1.206896,0.206614,-0.025692
1515639316,-0.312617,-0.191138,-0.14371,1.25435,0.154065,-0.184726
1515639316,-0.286173,-0.225627,-0.214165,1.034637,0.212796,-0.37862
1515639316,-0.221169,-0.232222,-0.215768,0.799022,0.262738,-0.485138
1515639316,-0.143322,-0.228035,-0.169436,0.637487,0.285064,-0.421161
1515639316,-0.055397,-0.208805,-0.132288,0.531458,0.31914,-0.238776
1515639316,0.034083,-0.176432,-0.11057,0.443734,0.341503,-0.003126
1515639316,0.116874,-0.12598,-0.10134,0.354904,0.258556,0.244896
1515639316,0.180515,-0.061006,-0.086445,0.264244,0.033176,0.452899
1515639317,0.231464,0.018881,-0.044209,0.196126,-0.316304,0.567663
1515639317,0.274826,0.109145,0.011485,0.178055,-0.654566,0.556703
1515639317,0.304956,0.181598,0.061929,0.184368,-0.868067,0.46097
1515639317,0.302984,0.216377,0.073904,0.192577,-0.835996,0.407799
1515639317,0.263705,0.221242,0.056592,0.177978,-0.654222,0.40639
1515639317,0.226558,0.184757,0.017061,0.155888,-0.470406,0.423108
1515639317,0.179913,0.115225,-0.021806,0.135273,-0.327041,0.459919
1515639317,0.122174,0.052093,-0.048331,0.13129,-0.246294,0.483695
1515639317,0.052677,-0.002695,-0.06844,0.137298,-0.204799,0.493461
1515639317,-0.020961,-0.034159,-0.080742,0.152919,-0.163232,0.492569
1515639317,-0.082242,-0.047,-0.090689,0.184504,-0.117227,0.455459
1515639317,-0.11733,-0.049425,-0.10059,0.216787,-0.03396,0.397174
1515639317,-0.130132,-0.038901,-0.10386,0.240034,0.099241,0.332686
1515639317,-0.127112,-0.025857,-0.101417,0.254261,0.281284,0.284384
1515639317,-0.111844,-0.017183,-0.095532,0.242037,0.437607,0.250887
1515639317,-0.08092,-0.014485,-0.087941,0.212324,0.525714,0.246963
1515639317,-0.050618,-0.02262,-0.070963,0.183225,0.551063,0.259849
1515639317,-0.020706,-0.034148,-0.048981,0.152658,0.509355,0.285253
1515639317,-0.006067,-0.052523,-0.031354,0.124692,0.42084,0.317929
1515639317,-0.002488,-0.059164,-0.019532,0.104564,0.295167,0.348332
1515639317,-0.012374,-0.058864,-0.019279,0.09376,0.20035,0.39272
1515639317,-0.030269,-0.052763,-0.027895,0.087878,0.148118,0.431952
1515639317,-0.056625,-0.044728,-0.050584,0.088371,0.099128,0.468004
1515639317,-0.091877,-0.036776,-0.062165,0.097661,0.134201,0.501197
1515639317,-0.121242,-0.031603,-0.065054,0.102211,0.216079,0.516453
1515639317,-0.14689,-0.039405,-0.066005,0.108573,0.33095,0.525446
1515639317,-0.165435,-0.044081,-0.049542,0.108224,0.476616,0.537757
1515639317,-0.177998,-0.040187,-0.026987,0.102748,0.599934,0.543579
1515639317,-0.188236,-0.037793,-0.014777,0.090402,0.662522,0.58007
1515639317,-0.20608,-0.039226,-0.000089,0.079024,0.626198,0.624694
1515639317,-0.218017,-0.036125,0.01399,0.057822,0.50155,0.677492
1515639317,-0.236717,-0.039525,0.024178,0.04577,0.316302,0.737509
1515639317,-0.258561,-0.04064,0.044863,0.03397,0.104507,0.776096
1515639317,-0.269699,-0.035138,0.054695,0.024338,-0.111489,0.80081
1515639317,-0.291783,-0.01773,0.076318,0.032274,-0.265729,0.836441
1515639317,-0.315857,-0.000272,0.098236,0.044279,-0.399711,0.860429
1515639317,-0.332187,0.012234,0.122961,0.063145,-0.470875,0.864414
1515639317,-0.33077,0.011186,0.15693,0.077443,-0.514314,0.828
1515639317,-0.326706,0.002112,0.188429,0.067631,-0.495193,0.816348
1515639317,-0.33465,-0.008903,0.231669,0.015718,-0.43065,0.830441
1515639317,-0.345115,-0.034931,0.259795,-0.107602,-0.383586,0.863617
1515639317,-0.379215,-0.052085,0.253756,-0.304857,-0.426216,0.874013
1515639317,-0.426766,-0.055322,0.1776,-0.574283,-0.633844,0.779241
1515639317,-0.46251,0.000325,0.018342,-0.838644,-1.040951,0.488577
1515639317,-0.481967,0.207855,-0.117803,-0.860314,-1.140094,0.064936
1515639317,-0.437178,0.499933,-0.040414,-0.51669,-0.462782,-0.424709
1515639317,-0.14982,0.542585,0.130985,-0.333183,0.198695,-0.902767
1515639317,0.241371,0.279738,0.063771,-0.534708,0.037344,-1.075148
1515639317,0.430921,0.00752,-0.054183,-0.866379,-0.893418,-0.86902
1515639317,0.467042,-0.069562,-0.033641,-1.126453,-1.931307,-0.61212
1515639317,0.321375,0.042532,0.001256,-1.353507,-2.633834,-0.44768
1515639317,0.06387,0.210998,-0.014117,-1.567532,-2.818055,-0.413341
1515639317,-0.108109,0.449864,-0.021616,-1.674598,-2.471823,-0.468496
1515639317,-0.200371,0.654157,-0.027281,-1.68623,-1.830504,-0.519233
1515639317,-0.209334,0.713073,-0.060365,-1.765274,-1.29052,-0.603454
1515639317,-0.118963,0.649297,-0.12536,-1.936829,-1.014836,-0.677055
1515639317,-0.022015,0.500629,-0.177648,-2.099823,-0.845634,-0.675392
1515639317,0.039886,0.375453,-0.198305,-2.165063,-0.72907,-0.655766
1515639317,0.083325,0.293237,-0.193361,-2.071616,-0.669001,-0.644819
1515639317,0.1045,0.214515,-0.166644,-1.835638,-0.651716,-0.636109
