time,accel x,accel y,accel z,gyro x,gyro y,gyro z
1515639761,0.042493,0.016643,-0.0448,-0.084914,-0.003119,-0.086877
1515639761,0.029349,0.019378,-0.032184,-0.047459,-0.008267,-0.069825
1515639761,0.009632,0.017702,-0.004081,-0.019627,-0.012409,-0.048507
1515639761,0.007092,0.015754,-0.016364,-0.002553,-0.009151,-0.032493
1515639761,0.008495,0.013066,-0.013085,0.012492,-0.017592,-0.023991
1515639761,0.012076,0.020249,-0.016307,0.017893,-0.022915,-0.009086
1515639761,0.007499,0.01987,-0.02444,0.010514,-0.032558,0.003664
1515639761,0.008713,0.018505,-0.029856,-0.002234,-0.040058,0.000433
1515639761,0.017009,0.021513,-0.025102,-0.009676,-0.044338,-0.00705
1515639761,0.016878,0.021923,-0.013129,0.006304,-0.039979,-0.015555
1515639761,0.021896,0.018438,-0.006504,0.028623,-0.028134,-0.024026
1515639761,0.029194,0.013753,-0.009983,0.048754,-0.010996,-0.029279
1515639761,0.034147,0.01118,-0.013268,0.047599,-0.002478,-0.036708
1515639761,0.040241,0.012082,-0.022985,0.034777,-0.002552,-0.036715
1515639761,0.043203,0.015746,-0.032295,0.000516,0.004686,-0.032438
1515639761,0.039257,0.018683,-0.04655,-0.032632,0.007704,-0.031368
1515639761,0.037224,0.016916,-0.043013,-0.068935,0.004332,-0.043126
1515639761,0.03591,0.015695,-0.038328,-0.108467,0.003049,-0.053817
1515639761,0.023024,0.010377,-0.027132,-0.134147,0.006119,-0.065543
1515639761,0.017871,0.009685,-0.023612,-0.139621,0.018882,-0.08042
1515639761,0.017348,0.009036,-0.011143,-0.106609,0.029733,-0.092087
1515639761,0.019035,0.006593,0.002914,-0.069237,0.032096,-0.100588
1515639761,0.026347,0.00452,-0.013963,-0.072283,0.01611,-0.093191
1515639761,0.018532,0.012544,-0.027634,-0.115916,-0.001198,-0.076225
1515639761,0.003426,0.025503,-0.023868,-0.138385,0.002882,-0.055964
1515639761,-0.003462,0.0176,-0.027481,-0.166957,-0.023934,-0.025168
1515639761,-0.016471,0.014054,-0.026056,-0.187043,-0.044332,0.008855
1515639761,-0.01829,0.0077,-0.018835,-0.174173,-0.048533,0.020573
1515639761,0.002798,-0.003493,-0.024891,-0.1603,-0.047359,0.006726
1515639761,0.02699,0.004459,-0.034685,-0.152899,-0.039884,0.004621
1515639761,0.020506,-0.003033,-0.0416,-0.168857,-0.046387,0.018446
1515639761,0.011592,-0.002201,-0.050538,-0.19339,-0.050769,0.015221
1515639761,0.019443,-0.000977,-0.049283,-0.199834,-0.047606,0.010966
1515639761,0.024338,-0.007725,-0.051405,-0.209334,-0.059356,0.011982
1515639761,0.027545,-0.013864,-0.052386,-0.247709,-0.068115,0.025788
1515639761,0.016201,-0.019749,-0.055499,-0.295796,-0.066337,0.056687
1515639761,0.003133,-0.03734,-0.051173,-0.310874,-0.053683,0.066325
1515639761,0.017998,-0.048611,-0.046627,-0.331087,-0.063339,0.053485
1515639761,0.030118,-0.039562,-0.038883,-0.356872,-0.048613,0.059928
1515639761,0.013977,-0.0417,-0.026901,-0.371778,-0.053008,0.083356
1515639761,-0.004913,-0.034458,-0.033575,-0.414622,-0.041594,0.100439
1515639761,-0.012411,-0.020072,-0.053787,-0.473664,-0.014248,0.086663
1515639761,0.012842,-0.020657,-0.06836,-0.523775,-0.026197,0.0706
1515639761,0.019827,-0.006712,-0.07489,-0.555462,-0.062588,0.096027
1515639761,0.003269,-0.024307,-0.092769,-0.635102,-0.220552,0.146526
1515639761,-0.022805,-0.077647,-0.121458,-0.744466,-0.395837,0.254509
1515639761,-0.045784,-0.077912,-0.139367,-0.917432,-0.514035,0.354163
1515639761,-0.054346,-0.101824,-0.146237,-1.127451,-0.56106,0.395452
1515639761,-0.039324,-0.142335,-0.13525,-1.257925,-0.657575,0.419522
1515639761,-0.029304,-0.120757,-0.128082,-1.343354,-0.880395,0.447371
1515639761,-0.042604,-0.06295,-0.141696,-1.400154,-0.970162,0.496023
1515639761,-0.042029,-0.003133,-0.104297,-1.445999,-0.870477,0.507064
1515639761,-0.014265,0.023983,-0.0796,-1.44243,-0.797128,0.529747
1515639761,-0.019666,0.037426,-0.044158,-1.33376,-0.763604,0.554449
1515639761,0.006307,0.027324,0.021317,-1.266862,-0.828178,0.592601
1515639761,0.006048,0.036075,-0.005381,-1.435442,-0.958028,0.685816
1515639761,0.010157,0.020421,-0.10444,-1.539171,-1.057592,0.715218
1515639761,0.047696,-0.010675,-0.096222,-1.582758,-1.192741,0.647495
1515639761,0.127919,-0.000334,-0.102279,-1.593554,-1.408313,0.481384
1515639761,0.163479,0.05981,-0.071851,-1.529979,-1.57683,0.386923
1515639761,0.150232,0.030214,-0.024751,-1.484949,-1.812598,0.358281
1515639761,0.131625,0.00133,-0.049027,-1.469217,-2.001764,0.341539
1515639761,0.109555,0.029705,-0.016022,-1.46436,-1.952786,0.327879
1515639761,0.105043,0.05177,0.013758,-1.706002,-2.046665,0.315661
1515639761,0.052494,0.14457,-0.2449,-2.451174,-2.21813,0.416962
1515639761,0.030009,0.296722,-0.070849,-1.669268,-0.558604,0.285398
1515639761,0.157077,0.258907,0.892893,-0.045697,0.034109,0.009236
1515639761,0.170433,-0.048532,0.626307,0.355391,-0.448301,-0.090584
1515639761,0.076391,-0.114159,0.005263,0.117173,-0.344425,-0.072157
1515639761,0.074664,-0.038125,-0.087252,-0.019022,-0.190722,-0.197402
1515639761,0.10161,0.016662,-0.047526,-0.036686,-0.136411,-0.275016
1515639761,0.075202,0.063735,-0.044158,-0.054144,-0.098276,-0.25355
1515639762,0.003461,0.096766,-0.032674,-0.028304,-0.002704,-0.125226
1515639762,-0.042014,0.060247,-0.01802,0.041001,0.014601,-0.080351
1515639762,-0.015158,0.003444,-0.009659,0.131003,0.095047,-0.155676
1515639762,0.030901,-0.012095,0.032955,0.250433,0.112042,-0.31653
1515639762,0.08184,-0.098182,0.053713,0.268205,0.142377,-0.518954
1515639762,0.081297,-0.13973,0.016024,0.10666,0.373688,-0.688667
1515639762,0.036283,-0.112802,-0.063613,-0.040149,0.637561,-0.6493
1515639762,-0.081327,-0.089835,-0.089404,-0.112233,0.69833,-0.432682
1515639762,-0.157354,-0.05949,-0.070173,0.076531,0.534812,-0.065453
1515639762,-0.208362,-0.107779,0.163657,0.901666,0.203589,0.365373
1515639762,-0.163377,-0.382069,0.351055,1.183803,-0.217952,0.792378
1515639762,-0.06056,-0.624381,0.002749,0.896802,-0.357448,1.082716
1515639762,-0.001314,-0.610564,-0.187707,0.624415,-0.242682,1.373019
1515639762,-0.042832,-0.496907,-0.128714,0.530868,-0.058828,1.665818
1515639762,-0.034691,-0.307073,-0.032314,0.464707,0.052999,1.897573
1515639762,0.024768,-0.184549,-0.012161,0.408597,0.116155,2.044918
1515639762,0.081581,-0.05091,-0.048898,0.362063,0.067987,2.064958
1515639762,0.085369,0.099152,-0.067301,0.417941,-0.071137,2.11986
1515639762,0.046237,0.093707,-0.072749,0.553246,-0.347384,2.35122
1515639762,-0.01646,-0.097466,-0.097191,0.539598,-0.572698,2.725567
1515639762,-0.094994,-0.218365,-0.069373,0.483317,-0.693264,3.229309
1515639762,-0.13337,-0.279197,-0.094429,0.290449,-0.846931,3.443947
1515639762,0.044271,0.095069,-0.102255,0.29166,-0.985562,3.143825
1515639762,0.250362,0.359545,-0.151711,0.220084,-1.231516,2.618296
1515639762,0.344759,0.506106,-0.177574,0.098416,-1.167014,2.000175
1515639762,0.363836,0.522268,-0.112494,-0.057082,-0.915785,1.490458
1515639762,0.274122,0.324229,-0.079611,-0.1855,-0.690449,1.216254
1515639762,0.197293,0.129198,-0.055291,-0.323472,-0.474596,0.878042
1515639762,0.185197,0.049923,-0.034923,-0.388699,-0.26483,0.595277
1515639762,0.146152,0.040652,-0.011542,-0.436067,-0.129521,0.374062
1515639762,0.099237,0.044182,-0.009045,-0.457931,0.022776,0.220082
1515639762,0.080699,-0.026888,-0.006092,-0.458699,0.091295,0.014604
1515639762,0.083161,-0.083698,-0.008967,-0.40509,0.174881,-0.131087
1515639762,0.040092,-0.112543,0.005081,-0.194127,0.560206,-0.223257
1515639762,-0.027106,0.113793,-0.018245,-0.13772,0.252251,-0.279901
1515639762,-0.087132,0.467139,-0.045408,-0.15627,0.179944,-0.330305
1515639762,-0.076289,0.563504,-0.043747,-0.190224,0.260762,-0.414217
1515639762,-0.023061,0.526167,-0.023793,-0.199858,0.372333,-0.400984
1515639762,0.018599,0.351158,0.000174,-0.168621,0.460578,-0.311065
1515639762,0.090457,0.203305,0.030324,-0.079976,0.465305,-0.298213
1515639762,0.127746,0.166711,0.055358,0.062216,0.455562,-0.332299
1515639762,0.141264,0.167724,0.059162,0.242762,0.347195,-0.38808
1515639762,0.174865,0.169559,0.031955,0.438135,0.144186,-0.413321
1515639762,0.177754,0.128114,0.010151,0.570326,-0.043297,-0.411879
1515639762,0.133524,0.118517,0.011055,0.599895,-0.22707,-0.428594
1515639762,0.064805,0.125545,0.018306,0.537857,-0.328519,-0.400246
1515639762,-0.044041,0.094551,0.017632,0.278497,-0.239004,-0.197456
1515639762,-0.196037,0.039659,0.002873,0.059544,-0.01547,0.097572
1515639762,-0.307611,-0.039554,0.047912,0.00451,0.163291,0.386102
1515639762,-0.32259,-0.105241,0.061611,0.074356,0.237898,0.493044
1515639762,-0.210015,-0.144995,0.042869,0.094832,0.212826,0.344769
1515639762,-0.08466,-0.182091,0.001378,0.081797,0.116386,0.163144
1515639762,-0.042434,-0.225976,-0.016124,0.043355,-0.001602,0.040054
1515639762,-0.021453,-0.232855,-0.026711,0.020431,-0.063335,0.001414
1515639762,-0.005281,-0.168917,-0.029434,0.013002,-0.068687,-0.001809
1515639762,0.020995,-0.069967,-0.02321,0.022785,-0.084613,0.016259
1515639762,0.03867,-0.007468,-0.018925,0.045755,-0.13771,0.040576
1515639762,0.041929,0.032064,-0.0124,0.064231,-0.169538,0.048982
1515639762,0.037434,0.072008,-0.004603,0.058813,-0.162108,0.041547
1515639762,0.028112,0.084117,0.004143,0.04684,-0.139811,0.03204
1515639762,0.016593,0.070668,0.012289,0.030754,-0.133539,0.03952
1515639762,0.003914,0.05087,0.013997,0.006316,-0.146478,0.059715
1515639762,-0.009664,0.036031,0.002333,-0.016962,-0.16899,0.079869
1515639762,-0.022065,0.022704,-0.010554,-0.020964,-0.196702,0.090411
1515639762,-0.032483,0.007103,-0.023436,-0.025052,-0.21586,0.087134
1515639762,-0.040478,-0.006825,-0.036424,-0.03248,-0.221206,0.082846
1515639762,-0.041792,-0.024631,-0.043684,-0.03991,-0.226554,0.077491
1515639762,-0.039161,-0.033377,-0.042633,-0.037669,-0.237156,0.073189
1515639762,-0.032616,-0.038134,-0.035181,-0.025841,-0.244544,0.078495
1515639762,-0.025741,-0.034304,-0.025686,-0.003564,-0.228471,0.075367
1515639762,-0.017298,-0.011906,-0.021796,0.01801,-0.250618,0.047571
1515639762,-0.010374,0.020034,-0.033908,0.040114,-0.216441,0.042391
1515639762,0.007183,0.014556,-0.019802,0.054254,-0.132356,0.046999
1515639762,0.011117,0.013436,-0.010241,0.024609,-0.04964,0.075034
1515639762,0.001749,0.002679,-0.016645,-0.025888,-0.020203,0.097516
1515639762,-0.006567,0.002018,-0.024669,-0.076177,-0.013059,0.101784
1515639762,-0.013284,0.007293,-0.030547,-0.078062,-0.038605,0.107011
1515639762,-0.025631,0.001924,-0.04107,-0.055406,-0.059792,0.128258
1515639762,-0.040517,-0.010158,-0.050416,-0.033738,-0.08948,0.144141
1515639762,-0.049445,-0.020815,-0.061985,-0.005602,-0.125497,0.151471
1515639762,-0.05544,-0.027137,-0.068145,0.00968,-0.158384,0.154544
1515639762,-0.058606,-0.028196,-0.069789,0.019639,-0.192374,0.168277
1515639762,-0.069925,-0.037919,-0.065813,0.029877,-0.255103,0.187219
1515639762,-0.076011,-0.044653,-0.060575,0.050934,-0.331611,0.20824
1515639762,-0.080899,-0.040505,-0.053864,0.0742,-0.415524,0.222839
1515639762,-0.091661,-0.039932,-0.041124,0.113236,-0.472774,0.24395
1515639762,-0.099406,-0.037345,-0.030339,0.16047,-0.494852,0.251346
1515639762,-0.107399,-0.033636,-0.028342,0.204387,-0.505243,0.258791
1515639762,-0.109454,-0.032963,-0.037578,0.228117,-0.528484,0.250181
1515639762,-0.101902,-0.034639,-0.046009,0.241326,-0.568789,0.236166
1515639762,-0.091116,-0.039655,-0.048247,0.246009,-0.611271,0.223205
1515639762,-0.079132,-0.042202,-0.04177,0.24527,-0.645311,0.220933
1515639762,-0.072834,-0.039934,-0.033719,0.249733,-0.66444,0.226189
1515639762,-0.070542,-0.035868,-0.029671,0.257425,-0.685694,0.237833
1515639762,-0.072003,-0.029101,-0.025211,0.272697,-0.7165,0.26117
1515639762,-0.079294,-0.024289,-0.02553,0.289238,-0.767495,0.286564
1515639762,-0.088141,-0.021071,-0.02156,0.302648,-0.827003,0.30019
1515639762,-0.097685,-0.022501,-0.002334,0.320182,-0.870582,0.329871
1515639762,-0.118481,-0.020603,0.020246,0.335231,-0.879034,0.343703
1515639763,-0.129324,-0.002853,0.030733,0.349273,-0.894879,0.334053
1515639763,-0.129419,0.013942,0.03475,0.352524,-0.899131,0.3415
1515639763,-0.130572,0.020942,0.046051,0.336756,-0.924798,0.363776
1515639763,-0.118062,0.039062,0.056798,0.323331,-0.970685,0.399832
1515639763,-0.117146,0.061866,0.069414,0.324291,-1.066491,0.446357
1515639763,-0.137139,0.079683,0.082265,0.327877,-1.213302,0.478818
1515639763,-0.168457,0.10542,0.101455,0.337996,-1.373834,0.482444
1515639763,-0.209459,0.136347,0.11526,0.348738,-1.490679,0.448932
1515639763,-0.254049,0.143017,0.123797,0.341761,-1.543806,0.412471
1515639763,-0.279313,0.136668,0.1288,0.322461,-1.539545,0.360241
1515639763,-0.263352,0.137366,0.127525,0.29302,-1.483188,0.282626
1515639763,-0.226896,0.140134,0.114178,0.253814,-1.410936,0.21147
1515639763,-0.192588,0.140662,0.092347,0.21059,-1.364249,0.150873
1515639763,-0.157627,0.13854,0.070922,0.161006,-1.321908,0.11264
1515639763,-0.120642,0.135057,0.050179,0.093219,-1.27544,0.081877
1515639763,-0.077901,0.115978,0.029062,0.00722,-1.223761,0.054326
1515639763,-0.043547,0.08746,0.014924,-0.082753,-1.201905,0.041581
1515639763,-0.027073,0.061642,0.015508,-0.180943,-1.214142,0.030824
1515639763,-0.031664,0.048786,0.025465,-0.28093,-1.261479,0.01566
1515639763,-0.052817,0.062514,0.019232,-0.390473,-1.316248,-0.027255
1515639763,-0.068461,0.084461,0.00495,-0.496025,-1.343278,-0.097773
1515639763,-0.078995,0.092118,-0.003788,-0.592055,-1.360686,-0.168249
1515639763,-0.070894,0.087198,-0.008548,-0.676804,-1.33015,-0.247055
1515639763,-0.042405,0.065536,-0.009631,-0.741579,-1.265497,-0.315055
1515639763,0.004157,0.046371,-0.038676,-0.769042,-1.190104,-0.339289
1515639763,0.065589,0.033356,-0.106143,-0.747957,-1.16024,-0.324235
1515639763,0.132091,0.01571,-0.18537,-0.716005,-1.148406,-0.301783
1515639763,0.181409,0.00506,-0.236482,-0.683215,-1.114189,-0.300564
1515639763,0.190504,-0.01796,-0.241742,-0.653857,-1.057622,-0.317381
1515639763,0.174659,-0.053562,-0.233021,-0.650777,-0.937344,-0.356342
1515639763,0.147754,-0.076909,-0.220561,-0.643023,-0.748929,-0.409947
1515639763,0.122232,-0.098579,-0.203409,-0.618502,-0.52745,-0.470879
1515639763,0.106463,-0.121129,-0.18822,-0.573553,-0.318646,-0.521194
1515639763,0.105884,-0.13685,-0.184513,-0.553189,-0.108903,-0.575778
1515639763,0.121632,-0.134976,-0.176356,-0.511257,0.079705,-0.641103
1515639763,0.136395,-0.132864,-0.154207,-0.395629,0.162407,-0.708945
1515639763,0.148904,-0.140921,-0.135264,-0.238652,0.169823,-0.763206
1515639763,0.159002,-0.144184,-0.119045,-0.092565,0.198411,-0.807797
1515639763,0.157343,-0.130069,-0.105565,0.023838,0.203416,-0.843967
1515639763,0.144172,-0.119866,-0.087549,0.08478,0.089992,-0.851856
1515639763,0.123041,-0.127756,-0.05256,0.106834,-0.087553,-0.817375
1515639763,0.092449,-0.131806,-0.029839,0.096727,-0.25363,-0.764743
1515639763,0.056084,-0.119183,-0.025922,0.057506,-0.393273,-0.722681
1515639763,0.027679,-0.102198,-0.021508,0.021712,-0.448746,-0.73678
1515639763,-0.000603,-0.087452,-0.004802,-0.026506,-0.437206,-0.785793
1515639763,-0.04117,-0.080754,0.003091,-0.08134,-0.405475,-0.84859
1515639763,-0.071813,-0.075583,0.01087,-0.108303,-0.385188,-0.954063
1515639763,-0.086255,-0.067315,0.028022,-0.058754,-0.319873,-1.025205
1515639763,-0.085185,-0.059033,0.014223,-0.010799,-0.307848,-1.047521
1515639763,-0.071177,-0.045231,-0.00801,0.043143,-0.360707,-1.049839
1515639763,-0.038465,-0.027367,-0.013368,0.083633,-0.459354,-1.064078
1515639763,0.010116,-0.018699,-0.020608,0.093435,-0.587964,-1.069919
1515639763,0.049466,-0.022423,-0.011977,0.056835,-0.779566,-1.08243
1515639763,0.084413,-0.01575,-0.009856,-0.014859,-0.879875,-1.112717
1515639763,0.11894,-0.005338,-0.017599,-0.100779,-0.726149,-1.121737
1515639763,0.140764,-0.00938,-0.009357,-0.134994,-0.394596,-1.098036
1515639763,0.148401,-0.022502,0.020353,-0.10261,-0.098814,-1.074445
1515639763,0.136811,-0.03419,0.023368,-0.007816,0.044125,-1.025853
1515639763,0.119591,-0.052675,-0.017796,0.120535,0.033052,-0.978931
1515639763,0.118311,-0.069674,-0.045309,0.225367,0.024967,-0.900025
1515639763,0.144586,-0.091873,-0.054686,0.2948,0.031541,-0.809349
1515639763,0.197314,-0.099616,-0.049988,0.348033,0.057098,-0.688755
1515639763,0.242638,-0.121931,-0.036709,0.413043,0.080587,-0.563899
1515639763,0.268625,-0.158571,-0.006247,0.465704,0.165656,-0.42601
1515639763,0.264349,-0.179161,0.025213,0.484941,0.281375,-0.28908
1515639763,0.229488,-0.191562,0.016863,0.474722,0.348079,-0.184342
1515639763,0.174109,-0.194474,-0.015059,0.455141,0.388208,-0.10103
1515639763,0.117383,-0.18229,-0.046612,0.462591,0.39448,-0.033839
1515639763,0.078955,-0.158205,-0.062182,0.496706,0.405174,0.023786
1515639763,0.061,-0.129027,-0.054888,0.558516,0.424551,0.077197
1515639763,0.054366,-0.104945,-0.040034,0.641852,0.427056,0.116687
1515639763,0.056381,-0.091888,-0.029645,0.747562,0.4361,0.147689
1515639763,0.067432,-0.090364,-0.013711,0.838271,0.449331,0.173374
1515639763,0.084895,-0.092611,0.00957,0.911883,0.46246,0.197982
1515639763,0.106205,-0.095415,0.018708,0.985475,0.477703,0.226861
1515639763,0.133077,-0.091716,-0.001197,1.064307,0.503608,0.257918
1515639763,0.15809,-0.074647,-0.030892,1.14748,0.523147,0.296417
1515639763,0.16694,-0.021134,-0.033952,1.219404,0.492558,0.367755
1515639763,0.142837,0.115594,0.012075,1.234628,0.360568,0.459981
1515639763,0.048811,0.40262,0.127073,1.045341,0.04894,0.463972
1515639763,-0.174912,0.923306,0.324997,0.326336,-0.413963,0.177129
1515639763,-0.605092,1.609555,0.516394,-0.242425,-0.724962,-0.119691
1515639763,-1.137735,1.938014,0.47277,-0.023819,-1.111084,0.00573
1515639763,-1.47913,1.572398,0.416306,0.289596,-1.253968,0.027693
1515639763,-1.032643,0.646727,0.474744,0.23469,-0.586075,-0.597569
1515639763,-0.173699,-0.024231,0.226223,0.203539,0.949954,-0.845147
1515639763,0.353754,-0.309752,-0.152982,0.293867,1.991304,-0.714067
1515639763,0.580685,-0.538045,-0.429485,0.331406,1.991894,-0.408084
1515639763,0.72814,-0.650786,-0.5431,0.166785,1.465008,-0.144822
1515639763,0.834158,-0.608411,-0.460063,-0.054465,0.933727,0.03524
1515639763,0.815331,-0.525585,-0.274177,-0.142753,0.687977,0.320985
1515639763,0.644671,-0.414918,-0.127774,-0.019643,0.680502,0.648298
1515639763,0.436179,-0.26755,-0.08693,0.224792,0.715518,0.831918
1515639763,0.241001,-0.130441,-0.127945,0.444175,0.794235,0.909095
1515639763,0.031496,0.005867,-0.214371,0.557476,0.791639,0.934725
1515639763,-0.172916,0.128085,-0.262555,0.559762,0.666202,0.917166
1515639763,-0.339401,0.216829,-0.195192,0.515083,0.64373,0.869084
1515639763,-0.415874,0.279437,-0.097634,0.524096,0.590851,0.761203
1515639763,-0.365577,0.285017,-0.068596,0.664462,0.428466,0.497295
1515639763,-0.265533,0.195055,-0.086515,0.708662,0.482593,0.18624
1515639764,-0.204065,0.040006,-0.097787,0.542592,0.736312,-0.037764
1515639764,-0.180064,-0.070641,-0.100093,0.399196,0.860258,-0.189783
1515639764,-0.182142,-0.106056,-0.093895,0.360884,0.843097,-0.219717
1515639764,-0.175005,-0.09313,-0.081379,0.355539,0.739649,-0.103933
1515639764,-0.091897,-0.068312,-0.077489,0.359315,0.580799,0.079862
1515639764,0.058669,-0.053952,-0.088949,0.359084,0.395312,0.276341
1515639764,0.176643,-0.058689,-0.104388,0.345555,0.149136,0.471505
1515639764,0.205952,-0.064444,-0.099603,0.338759,-0.132009,0.627087
1515639764,0.177926,-0.040836,-0.059046,0.336297,-0.315053,0.677523
1515639764,0.119701,0.009602,-0.017727,0.355706,-0.335054,0.635875
1515639764,0.044896,0.060491,-0.000956,0.389536,-0.194238,0.523449
1515639764,-0.019022,0.095393,-0.005116,0.394448,0.062374,0.395486
1515639764,-0.060181,0.10286,-0.026853,0.352451,0.310122,0.307977
1515639764,-0.077816,0.071851,-0.057076,0.271824,0.46716,0.260596
1515639764,-0.074362,0.014472,-0.082246,0.187991,0.515672,0.228769
1515639764,-0.068449,-0.034701,-0.096236,0.123356,0.458979,0.210387
1515639764,-0.068544,-0.058783,-0.103363,0.085662,0.37902,0.198318
1515639764,-0.075728,-0.063536,-0.1019,0.085041,0.333286,0.199201
1515639764,-0.090066,-0.055983,-0.092587,0.112507,0.256847,0.211701
1515639764,-0.105174,-0.051414,-0.085495,0.152744,0.18579,0.227426
1515639764,-0.113882,-0.042584,-0.086546,0.207464,0.054205,0.241851
1515639764,-0.109891,-0.037466,-0.094705,0.260288,-0.102889,0.243378
1515639764,-0.090386,-0.031397,-0.108108,0.30633,-0.22274,0.223734
1515639764,-0.058608,-0.023693,-0.126179,0.350772,-0.289394,0.184043
1515639764,-0.027859,-0.023238,-0.1477,0.386298,-0.317863,0.161555
1515639764,0.004819,-0.023346,-0.165008,0.414005,-0.311277,0.141339
1515639764,0.041599,-0.0134,-0.176511,0.427814,-0.303717,0.124319
1515639764,0.075572,-0.007772,-0.182573,0.420265,-0.296328,0.129675
1515639764,0.108244,-0.005081,-0.172541,0.390462,-0.307179,0.149873
1515639764,0.136346,0.002249,-0.146049,0.359849,-0.343598,0.188091
1515639764,0.146349,0.005912,-0.111692,0.315724,-0.417355,0.249611
1515639764,0.135344,0.012961,-0.063234,0.260791,-0.479458,0.297309
1515639764,0.094868,0.025676,-0.020817,0.215067,-0.502096,0.308918
1515639764,0.023772,0.033599,0.006593,0.194156,-0.440496,0.292098
1515639764,-0.068047,0.035262,0.022085,0.189222,-0.265987,0.238428
1515639764,-0.141498,0.03687,0.019253,0.175059,-0.022394,0.176501
1515639764,-0.173747,0.030876,0.001811,0.137495,0.210404,0.121978
1515639764,-0.159804,0.016275,-0.023183,0.089291,0.33038,0.08619
1515639764,-0.120154,-0.003624,-0.048587,0.039713,0.373726,0.076748
1515639764,-0.079111,-0.01897,-0.068136,-0.007506,0.394719,0.078941
1515639764,-0.048778,-0.025785,-0.084711,-0.049115,0.389125,0.097023
1515639764,-0.030307,-0.028678,-0.094731,-0.094988,0.383464,0.133225
1515639764,-0.020108,-0.025908,-0.097224,-0.140642,0.355443,0.177863
1515639764,-0.022675,-0.023484,-0.095769,-0.170026,0.303057,0.225613
1515639764,-0.035232,-0.025917,-0.087705,-0.181219,0.247624,0.260569
1515639764,-0.054362,-0.024793,-0.083078,-0.170106,0.205092,0.285989
1515639764,-0.077168,-0.024176,-0.082387,-0.146396,0.184983,0.300843
1515639764,-0.094077,-0.024982,-0.079797,-0.131439,0.186094,0.317912
1515639764,-0.10364,-0.023198,-0.075312,-0.12734,0.204184,0.323316
1515639764,-0.114829,-0.023115,-0.075334,-0.139163,0.211548,0.328671
1515639764,-0.13056,-0.031252,-0.071971,-0.161438,0.195451,0.339259
1515639764,-0.144656,-0.047918,-0.067332,-0.189015,0.175063,0.349824
1515639764,-0.155891,-0.066959,-0.059842,-0.208171,0.167478,0.360443
1515639764,-0.166564,-0.076241,-0.056875,-0.229557,0.169465,0.367903
1515639764,-0.176615,-0.084099,-0.051946,-0.243487,0.174649,0.392438
1515639764,-0.183543,-0.085226,-0.045162,-0.252053,0.177735,0.416966
1515639764,-0.192774,-0.078269,-0.038361,-0.26063,0.181876,0.443629
1515639764,-0.20347,-0.072631,-0.035488,-0.277717,0.182755,0.482003
1515639764,-0.209136,-0.062833,-0.030774,-0.294584,0.161311,0.519223
1515639764,-0.205801,-0.053067,-0.022826,-0.297528,0.135714,0.544705
1515639764,-0.201359,-0.049484,-0.009272,-0.290875,0.112297,0.571267
1515639764,-0.193256,-0.047129,0.003203,-0.283502,0.12502,0.607568
1515639764,-0.184378,-0.048298,0.009887,-0.270927,0.152623,0.657788
1515639764,-0.185283,-0.050707,0.009382,-0.275211,0.157728,0.74096
1515639764,-0.195295,-0.066359,-0.001705,-0.299384,0.121234,0.833554
1515639764,-0.214965,-0.077066,-0.014989,-0.353148,0.051566,0.937724
1515639764,-0.241848,-0.099964,-0.023869,-0.42052,-0.046917,1.048166
1515639764,-0.266519,-0.144229,-0.038478,-0.477633,-0.21329,1.112502
1515639764,-0.279904,-0.182797,-0.07119,-0.524488,-0.450589,1.062492
1515639764,-0.2802,-0.174109,-0.128339,-0.554319,-0.689523,0.832313
1515639764,-0.287659,-0.05823,-0.190268,-0.488123,-0.705211,0.406915
1515639764,-0.257333,0.114156,-0.154467,-0.227658,-0.268588,-0.141303
1515639764,-0.103495,0.175662,0.024158,0.010602,0.367645,-0.598111
1515639764,0.190327,0.107454,0.193694,0.084891,0.411008,-0.774869
1515639764,0.468134,0.068282,0.2479,0.084993,-0.3521,-0.508215
1515639764,0.598818,0.05747,0.156072,0.195341,-1.225996,0.122645
1515639764,0.579828,0.003943,0.006313,0.308383,-1.724259,0.656933
1515639764,0.394623,-0.026468,-0.088755,0.304307,-1.845888,0.821685
1515639764,0.083137,0.076622,-0.099793,0.243685,-1.546365,0.831384
1515639764,-0.199536,0.261398,-0.031227,0.137828,-0.886386,0.755092
1515639764,-0.367135,0.376135,-0.001468,0.020623,-0.381516,0.585428
1515639764,-0.372672,0.332934,-0.026073,-0.089628,-0.258501,0.459006
1515639764,-0.254964,0.204426,-0.026567,-0.091953,-0.459448,0.430481
1515639764,-0.143981,0.120777,0.010063,0.009076,-0.735503,0.489121
1515639764,-0.095182,0.108904,0.08103,0.141302,-0.923155,0.563053
1515639764,-0.099527,0.13634,0.15337,0.275377,-0.972503,0.622619
1515639764,-0.126924,0.162222,0.1841,0.387148,-0.927253,0.653774
1515639764,-0.130931,0.158161,0.160418,0.437865,-0.867466,0.679624
1515639764,-0.101204,0.117911,0.118368,0.441406,-0.900476,0.707211
1515639764,-0.040247,0.063791,0.073176,0.402003,-1.023016,0.714163
1515639764,0.020854,0.022785,0.01512,0.332258,-1.213713,0.682447
1515639764,0.06537,-0.014492,-0.042209,0.263674,-1.414971,0.624039
1515639764,0.088884,-0.05329,-0.073977,0.214908,-1.567169,0.555177
1515639764,0.085341,-0.086676,-0.087597,0.190528,-1.589535,0.508169
1515639764,0.065234,-0.09574,-0.06861,0.159018,-1.539566,0.434796
1515639764,0.03387,-0.073992,-0.042443,0.092934,-1.450456,0.364761
1515639764,0.000972,-0.066754,-0.04057,0.008427,-1.335901,0.277759
1515639764,-0.011491,-0.096305,-0.056578,-0.077058,-1.23089,0.181127
1515639764,-0.000895,-0.126984,-0.079376,-0.125496,-1.199039,0.086355
1515639765,0.031822,-0.138045,-0.098334,-0.140248,-1.223437,0.021219
1515639765,0.068901,-0.116194,-0.093308,-0.134648,-1.253019,-0.048189
1515639765,0.103884,-0.060046,-0.069547,-0.15944,-1.234897,-0.130215
1515639765,0.146794,-0.018051,-0.058103,-0.245399,-1.189517,-0.198306
1515639765,0.192996,-0.011896,-0.058862,-0.383078,-1.099763,-0.264108
1515639765,0.22901,-0.016784,-0.070323,-0.532088,-0.94412,-0.337112
1515639765,0.247521,-0.013217,-0.080725,-0.665472,-0.746939,-0.399283
1515639765,0.244115,-0.001363,-0.077626,-0.76577,-0.545348,-0.448629
1515639765,0.225066,0.014645,-0.054947,-0.863762,-0.360762,-0.494842
1515639765,0.196554,0.026952,-0.028804,-0.952893,-0.208035,-0.53798
1515639765,0.165901,0.029846,-0.010662,-1.021326,-0.095612,-0.577006
1515639765,0.145026,0.021401,-0.004386,-1.087093,-0.037413,-0.615183
1515639765,0.127274,0.005642,0.001634,-1.149478,0.002727,-0.65343
1515639765,0.102144,-0.003941,0.009735,-1.199918,0.022758,-0.704546
1515639765,0.066245,-0.01146,0.019146,-1.226808,0.037641,-0.770595
1515639765,0.029737,-0.014763,0.038758,-1.224639,0.030398,-0.85271
1515639765,0.004605,-0.009373,0.057867,-1.190202,0.001021,-0.942361
1515639765,-0.004242,0.003044,0.062235,-1.16895,0.008781,-1.029739
1515639765,0.003179,0.01907,0.045563,-1.176407,0.00254,-1.110789
1515639765,0.020522,0.027257,0.02205,-1.152128,-0.080115,-1.182537
1515639765,0.037581,0.020888,-0.004388,-1.124065,-0.221257,-1.243856
1515639765,0.05016,-0.005696,-0.058334,-1.155728,-0.372361,-1.279655
1515639765,0.053781,-0.040852,-0.086148,-1.230485,-0.488577,-1.337724
1515639765,0.052383,-0.075558,-0.066731,-1.344445,-0.419965,-1.397201
1515639765,0.021699,-0.090105,-0.029648,-1.413001,-0.299875,-1.535341
1515639765,-0.008807,-0.110462,0.010953,-1.41543,-0.059204,-1.69216
1515639765,-0.051647,-0.107759,0.027388,-1.309418,0.126873,-1.881124
1515639765,-0.064201,-0.11325,0.012455,-1.174023,0.260902,-2.021242
1515639765,-0.072855,-0.103507,-0.010717,-1.029157,0.305418,-2.058307
1515639765,-0.053219,-0.103332,-0.043736,-0.892862,0.247572,-1.998776
1515639765,0.000135,-0.113772,-0.071718,-0.765401,0.11296,-1.873459
1515639765,0.06909,-0.131005,-0.068769,-0.636372,-0.072692,-1.745146
1515639765,0.138097,-0.148663,-0.040711,-0.498242,-0.20514,-1.609154
1515639765,0.192944,-0.155082,-0.005057,-0.379593,-0.202664,-1.464104
1515639765,0.230308,-0.168793,0.018382,-0.303622,-0.095229,-1.281338
1515639765,0.255611,-0.192012,0.015137,-0.240075,-0.029283,-1.120063
1515639765,0.283173,-0.231935,-0.012175,-0.185075,0.033539,-1.014243
1515639765,0.294459,-0.26263,-0.037341,-0.139311,0.165467,-0.928411
1515639765,0.316649,-0.305233,-0.041443,0.079956,0.056143,-0.465003
1515639765,0.36535,-0.342509,-0.025904,0.138544,0.398074,-0.562748
1515639765,0.231415,-0.215518,0.083218,0.139606,0.833181,-0.626033
1515639765,0.049143,-0.177263,0.121157,0.268332,0.999829,-0.632768
1515639765,-0.041337,-0.155347,0.148713,0.397141,1.053538,-0.542941
1515639765,-0.079255,-0.197572,0.081089,0.501591,0.975298,-0.470705
1515639765,-0.061222,-0.220982,-0.06239,0.544315,0.869125,-0.439129
1515639765,-0.004787,-0.232942,-0.091411,0.577364,0.768237,-0.421397
1515639765,0.078149,-0.229841,-0.039645,0.66157,0.683483,-0.35027
1515639765,0.177719,-0.229806,-0.007536,0.834615,0.58836,-0.172536
1515639765,0.273676,-0.249086,-0.002297,1.008159,0.552748,0.026759
1515639765,0.313882,-0.28924,0.006335,1.184338,0.57565,0.226293
1515639765,0.306942,-0.335581,0.009163,1.357927,0.643262,0.396152
1515639765,0.282463,-0.358008,0.001638,1.493264,0.686301,0.515787
1515639765,0.235316,-0.280173,0.021311,1.426252,0.548599,0.573837
1515639765,0.089109,0.165252,0.237905,0.977012,0.370858,0.441787
1515639765,-0.491903,1.555156,0.752053,0.313292,0.479549,0.07198
1515639765,-1.781898,3.040027,0.057057,-0.312046,-0.568242,0.486443
1515639765,-2.617444,3.231789,0.185119,-0.094663,-1.823835,0.405818
1515639765,-1.704747,1.73913,0.79303,-0.091654,-1.629286,-0.501694
1515639765,0.085672,0.136337,0.295693,-0.033898,0.625167,-1.253798
1515639765,0.867683,-0.143167,-0.335317,0.274866,3.130987,-1.537833
1515639765,1.150706,-0.431121,-0.670203,0.608817,3.636204,-1.19024
1515639765,1.312786,-0.735923,-0.782631,0.477032,2.726542,-0.407192
1515639765,1.393151,-0.809724,-0.639219,-0.115872,1.5423,0.239146
1515639765,1.275577,-0.708012,-0.393617,-0.553024,0.697775,0.599079
1515639765,0.860507,-0.538223,-0.268259,-0.385102,0.362247,0.791838
1515639765,0.42368,-0.333442,-0.260792,0.147279,0.339628,0.863432
1515639765,0.100902,-0.147283,-0.269277,0.516545,0.603368,0.859335
1515639765,-0.19127,0.048656,-0.262908,0.597238,0.871926,0.807141
1515639765,-0.447916,0.248905,-0.232371,0.439703,1.023342,0.698934
1515639765,-0.587482,0.401678,-0.113826,0.580298,0.851812,0.7239
1515639765,-0.52383,0.438963,-0.070631,0.729538,0.66871,0.713641
1515639765,-0.323492,0.408535,-0.063271,0.672095,0.627603,0.407489
1515639765,-0.169155,0.27344,-0.043638,0.532909,0.859357,0.089597
1515639765,-0.120492,0.086381,-0.038526,0.425298,1.258905,-0.041042
1515639765,-0.110035,-0.039928,-0.072163,0.313632,1.423122,-0.050031
1515639765,-0.091904,-0.097624,-0.088976,0.214941,1.246962,0.006785
1515639765,-0.048084,-0.095219,-0.084303,0.152046,0.912277,0.182381
1515639765,0.051454,-0.078972,-0.091106,0.173738,0.562001,0.408056
1515639765,0.164486,-0.064782,-0.114151,0.228772,0.299129,0.635167
1515639765,0.234751,-0.042543,-0.118389,0.233513,0.150903,0.8222
1515639765,0.253192,-0.018992,-0.099273,0.203084,0.100439,0.958441
1515639765,0.231542,0.004483,-0.065315,0.188105,0.10555,1.017092
1515639765,0.189387,0.038331,-0.029014,0.205984,0.134385,1.008688
1515639765,0.132526,0.071776,-0.014309,0.249699,0.141157,0.947971
1515639765,0.07871,0.099889,-0.020994,0.290034,0.163942,0.850003
1515639765,0.035733,0.111709,-0.034374,0.318088,0.238832,0.719187
1515639765,0.001864,0.095465,-0.056509,0.322424,0.334887,0.577786
1515639765,-0.030391,0.058189,-0.089907,0.288076,0.455076,0.478038
1515639765,-0.055455,0.009345,-0.113938,0.21573,0.530266,0.434596
1515639765,-0.061281,-0.040756,-0.134512,0.137748,0.526745,0.392976
1515639765,-0.052417,-0.072953,-0.138568,0.071694,0.50619,0.380069
1515639765,-0.058461,-0.092447,-0.133467,0.042861,0.394378,0.368944
1515639765,-0.075608,-0.094247,-0.120709,0.036446,0.284831,0.356774
1515639765,-0.091834,-0.076929,-0.10961,0.040513,0.196573,0.359618
1515639765,-0.103547,-0.063102,-0.105985,0.081141,0.084108,0.346393
1515639765,-0.098358,-0.05074,-0.102351,0.145945,0.012221,0.32375
1515639765,-0.082347,-0.038493,-0.099748,0.236745,-0.095688,0.304171
1515639765,-0.056883,-0.022234,-0.098016,0.312725,-0.217538,0.294121
1515639765,-0.030426,-0.004495,-0.101823,0.352519,-0.35343,0.292529
1515639766,-0.008093,0.003755,-0.11149,0.350515,-0.475752,0.301635
1515639766,0.007174,0.008844,-0.119409,0.32046,-0.570601,0.314033
1515639766,0.016887,0.009079,-0.121235,0.285802,-0.631449,0.329765
1515639766,0.016906,0.003964,-0.121017,0.259229,-0.645443,0.337159
1515639766,0.010263,-0.009912,-0.109411,0.235068,-0.578598,0.339544
1515639766,-0.001777,-0.015228,-0.100768,0.195527,-0.46926,0.327171
1515639766,-0.01301,-0.004449,-0.100712,0.146966,-0.312084,0.302194
1515639766,-0.021877,0.003851,-0.097104,0.095457,-0.181514,0.276042
1515639766,-0.032227,0.002861,-0.089034,0.054983,-0.087042,0.247614
1515639766,-0.042724,0.002943,-0.081329,0.01698,-0.025558,0.238248
1515639766,-0.040975,0.004608,-0.072806,-0.038498,0.075177,0.2333
1515639766,-0.033695,0.001687,-0.068073,-0.078772,0.150468,0.22612
1515639766,-0.042179,-0.013001,-0.074337,-0.092752,0.159937,0.234679
1515639766,-0.050057,-0.03051,-0.083875,-0.104593,0.169414,0.246438
1515639766,-0.055501,-0.035019,-0.096211,-0.117303,0.158675,0.261315
1515639766,-0.069296,-0.042348,-0.112973,-0.121095,0.110735,0.288839
1515639766,-0.083469,-0.047476,-0.11923,-0.127052,0.065944,0.327033
1515639766,-0.091637,-0.040056,-0.113216,-0.143706,0.022177,0.357765
1515639766,-0.105091,-0.034748,-0.10716,-0.15944,-0.006673,0.380031
1515639766,-0.122476,-0.033957,-0.095343,-0.164364,-0.049255,0.386254
1515639766,-0.139633,-0.037376,-0.086329,-0.164052,-0.081152,0.386128
1515639766,-0.152392,-0.047444,-0.081821,-0.158667,-0.085377,0.38718
1515639766,-0.165988,-0.058965,-0.08263,-0.1621,-0.062011,0.390469
1515639766,-0.173105,-0.065589,-0.084249,-0.171054,-0.02058,0.387433
1515639766,-0.177818,-0.063762,-0.082099,-0.19382,0.013308,0.395022
1515639766,-0.185691,-0.06276,-0.073619,-0.216428,0.031231,0.40681
1515639766,-0.192767,-0.06306,-0.058264,-0.250732,0.043733,0.432428
1515639766,-0.190509,-0.065822,-0.042884,-0.291706,0.082795,0.454952
1515639766,-0.183966,-0.066883,-0.029811,-0.330819,0.150551,0.490385
1515639766,-0.179358,-0.063486,-0.016602,-0.360183,0.205575,0.538565
1515639766,-0.186841,-0.048002,-0.00848,-0.373312,0.239421,0.587735
1515639766,-0.215364,-0.029241,-0.003984,-0.389297,0.238122,0.651686
1515639766,-0.249022,-0.022156,0.004911,-0.415673,0.208021,0.734712
1515639766,-0.274184,-0.019365,0.018738,-0.454775,0.16824,0.827282
1515639766,-0.30206,-0.032016,0.030045,-0.528833,0.097386,0.929301
1515639766,-0.340267,-0.08313,0.02286,-0.622718,-0.022464,1.019392
1515639766,-0.376921,-0.173398,-0.021186,-0.711233,-0.258022,1.032266
1515639766,-0.393821,-0.22978,-0.108809,-0.798608,-0.619708,0.857004
1515639766,-0.39789,-0.155108,-0.209549,-0.808709,-0.919752,0.420835
1515639766,-0.363876,0.021999,-0.238094,-0.53683,-0.784707,-0.297027
1515639766,-0.190051,0.143287,-0.07781,-0.133141,0.075394,-1.047096
1515639766,0.133635,0.093075,0.150918,0.040028,0.603351,-1.290093
1515639766,0.381615,-0.033494,0.226043,0.09213,0.211407,-0.89506
1515639766,0.616925,0.005238,0.135792,0.267377,-0.632403,-0.236331
1515639766,0.808977,0.046339,-0.050148,0.456182,-1.548606,0.487142
1515639766,0.788503,-0.037927,-0.166821,0.478031,-2.233243,0.909769
1515639766,0.544721,0.018035,-0.110109,0.350161,-2.156485,0.976115
1515639766,0.15109,0.240656,0.068175,0.154491,-1.488601,0.939256
1515639766,-0.190625,0.45996,0.149802,0.007357,-0.761779,0.822699
1515639766,-0.389053,0.546948,0.134795,-0.145347,-0.341188,0.675063
1515639766,-0.388086,0.462186,0.082552,-0.246131,-0.31069,0.57493
1515639766,-0.266124,0.303127,0.042999,-0.226949,-0.527384,0.511172
1515639766,-0.160122,0.203922,0.076702,-0.136434,-0.716091,0.478475
1515639766,-0.10025,0.187691,0.151314,-0.027494,-0.821752,0.451451
1515639766,-0.083924,0.204613,0.195598,0.026404,-0.872379,0.403301
1515639766,-0.076451,0.20347,0.192788,0.029258,-0.949808,0.319838
1515639766,-0.057904,0.176248,0.164202,-0.031335,-0.986112,0.231181
1515639766,-0.04344,0.145514,0.12702,-0.141735,-0.955693,0.137436
1515639766,-0.038954,0.099212,0.087223,-0.278976,-0.91266,0.036263
1515639766,-0.043157,0.038562,0.048653,-0.406591,-0.870618,-0.068104
1515639766,-0.055777,0.003243,0.024672,-0.480455,-0.86229,-0.180047
1515639766,-0.063205,-0.00317,0.008559,-0.525119,-0.888916,-0.276121
1515639766,-0.05325,-0.008689,-0.010286,-0.563886,-0.970838,-0.352154
1515639766,-0.024644,-0.021705,-0.03488,-0.631169,-1.085975,-0.398489
1515639766,0.01943,-0.045123,-0.056116,-0.722957,-1.206658,-0.407547
1515639766,0.066948,-0.075391,-0.06626,-0.819962,-1.339107,-0.397464
1515639766,0.104011,-0.103239,-0.077642,-0.909099,-1.510871,-0.38007
1515639766,0.128011,-0.119387,-0.089202,-0.985583,-1.665544,-0.365802
1515639766,0.145372,-0.123482,-0.092091,-1.038085,-1.760485,-0.371539
1515639766,0.150786,-0.119627,-0.099553,-1.060354,-1.779671,-0.40894
1515639766,0.14341,-0.111216,-0.106363,-1.09124,-1.683966,-0.479994
1515639766,0.128883,-0.090803,-0.112131,-1.127019,-1.526546,-0.582788
1515639766,0.102664,-0.058537,-0.122838,-1.169861,-1.303215,-0.697052
1515639766,0.082395,-0.023066,-0.134481,-1.21612,-1.057583,-0.80163
1515639766,0.078048,0.009985,-0.139018,-1.222645,-0.830925,-0.879612
1515639766,0.094525,0.048331,-0.133053,-1.200884,-0.65519,-0.940729
1515639766,0.129767,0.067558,-0.120222,-1.162692,-0.519816,-0.983878
1515639766,0.171979,0.058723,-0.098142,-1.118027,-0.390783,-1.027048
1515639766,0.206661,0.054434,-0.062088,-1.065631,-0.287229,-1.068183
1515639766,0.21147,0.064619,-0.040224,-1.017189,-0.215652,-1.089194
1515639766,0.2037,0.059416,-0.048628,-0.973037,-0.140959,-1.084607
1515639766,0.204328,0.034349,-0.066554,-0.928306,-0.015272,-1.058496
1515639766,0.207082,0.00822,-0.081182,-0.869746,0.116838,-1.022763
1515639766,0.199155,-0.011509,-0.095391,-0.795977,0.22354,-0.99245
1515639766,0.175342,-0.020002,-0.10289,-0.696687,0.342143,-0.981261
1515639766,0.143375,-0.015544,-0.097842,-0.557054,0.48652,-0.98488
1515639766,0.121857,-0.011932,-0.089713,-0.377864,0.627945,-0.99809
1515639766,0.11316,-0.014843,-0.090176,-0.176536,0.690816,-1.013733
1515639766,0.108694,-0.027658,-0.1042,0.024675,0.657908,-0.998843
1515639766,0.102016,-0.053416,-0.119137,0.195475,0.568349,-0.935157
1515639766,0.106886,-0.091223,-0.113047,0.308138,0.41464,-0.864291
1515639766,0.128539,-0.138856,-0.098702,0.365753,0.207463,-0.80646
1515639766,0.151338,-0.173364,-0.104661,0.372789,0.036192,-0.764501
1515639766,0.161419,-0.188329,-0.128167,0.343545,-0.030042,-0.706146
1515639766,0.169876,-0.192924,-0.128883,0.297678,-0.035734,-0.657152
1515639766,0.188887,-0.200679,-0.094802,0.261629,-0.062614,-0.618898
1515639766,0.197459,-0.202061,-0.053956,0.264734,-0.049958,-0.566611
1515639766,0.187846,-0.179586,-0.019368,0.290912,0.006481,-0.533324
1515639766,0.189776,-0.159826,0.009888,0.347768,0.091929,-0.553209
1515639767,0.199808,-0.155127,0.014967,0.3562,0.214227,-0.531393
1515639767,0.207774,-0.155575,0.008715,0.336886,0.22161,-0.551627
1515639767,0.221631,-0.153794,0.0075,0.287307,0.266978,-0.517354
1515639767,0.226919,-0.148587,0.021665,0.249282,0.220041,-0.551676
1515639767,0.203981,-0.131688,0.043419,0.050149,0.150819,-0.54352
1515639767,0.144012,-0.104108,0.099418,-0.260094,-0.035713,-0.668076
1515639767,0.080238,-0.070105,0.19801,-0.558769,0.012946,-0.840727
1515639767,-0.02427,0.00382,0.246962,-0.662499,0.234854,-0.948627
1515639767,-0.112034,0.092286,0.237587,-0.593567,0.507478,-0.940038
1515639767,-0.136374,0.214341,0.219581,-0.419944,0.790935,-0.755456
1515639767,-0.017763,0.2822,0.12095,-0.235444,1.057337,-0.522962
1515639767,0.222348,0.136484,0.004722,-0.076134,1.274768,-0.335454
1515639767,0.414246,-0.139921,-0.041107,0.003806,1.522614,-0.157454
1515639767,0.468192,-0.350064,-0.004736,0.07514,1.668266,0.04572
1515639767,0.433125,-0.441187,0.017765,0.187048,1.59724,0.229919
1515639767,0.371397,-0.428265,-0.006608,0.285884,1.442171,0.402054
1515639767,0.292214,-0.386395,-0.029809,0.383392,1.312632,0.559359
1515639767,0.212042,-0.332675,-0.034564,0.512699,1.207783,0.691189
1515639767,0.136025,-0.270009,-0.035892,0.666233,1.136177,0.766666
1515639767,0.067029,-0.211509,-0.018066,0.801881,1.14224,0.779547
1515639767,0.010417,-0.166396,0.035513,0.887636,1.221526,0.736196
1515639767,-0.031401,-0.121611,0.091268,0.949375,1.351761,0.672782
1515639767,-0.054426,-0.078904,0.104652,1.055368,1.438564,0.648661
1515639767,-0.032221,-0.068689,0.062438,1.198515,1.441551,0.634885
1515639767,0.017381,-0.068436,0.027882,1.331936,1.346617,0.629237
1515639767,0.032457,0.059046,0.105023,1.403765,1.433099,0.659468
1515639767,-0.117263,0.627332,0.370094,0.850698,1.814415,0.403811
1515639767,-0.706409,1.735188,0.218568,-0.122002,1.503412,0.025778
1515639767,-1.563974,2.325934,-0.044396,-0.746499,0.224393,-0.296274
1515639767,-2.128123,2.111109,0.433378,-0.696587,-2.049667,-0.477008
1515639767,-1.743997,0.911741,0.809664,-0.151556,-1.642493,-0.918601
1515639767,-0.578275,-0.037473,0.488485,0.107935,0.550234,-1.142089
1515639767,0.218485,-0.236761,-0.157328,0.076226,2.92055,-1.152851
1515639767,0.632185,-0.332534,-0.595413,0.035554,3.696505,-1.086857
1515639767,0.932088,-0.550011,-0.728324,0.04811,2.64212,-0.838422
1515639767,1.189941,-0.641415,-0.596033,-0.024106,1.419639,-0.303928
1515639767,1.270752,-0.524084,-0.390904,-0.139666,0.481735,0.312709
1515639767,1.086541,-0.401914,-0.279393,-0.021641,0.01157,0.663749
1515639767,0.760882,-0.286821,-0.244438,0.284939,-0.084715,0.754125
1515639767,0.487501,-0.142403,-0.237596,0.52056,0.189833,0.803311
1515639767,0.2753,0.037161,-0.249362,0.584441,0.433662,0.835235
1515639767,0.100493,0.262396,-0.237649,0.618191,0.481587,0.889813
1515639767,-0.049582,0.449397,-0.161772,0.69272,0.514718,1.007249
1515639767,-0.142755,0.541113,-0.110857,0.690659,0.511347,1.089328
1515639767,-0.120893,0.511004,-0.112472,0.604403,0.584512,0.96485
1515639767,-0.028651,0.366184,-0.109852,0.379256,1.082748,0.623463
1515639767,-0.024595,0.170802,-0.12536,0.10566,1.728512,0.293309
1515639767,-0.166822,-0.033048,-0.163097,-0.031205,1.949281,0.137417
1515639767,-0.36338,-0.174875,-0.168963,-0.070429,1.807635,0.128302
1515639767,-0.459106,-0.193292,-0.09738,-0.121874,1.604226,0.119995
1515639767,-0.35437,-0.110461,-0.007109,-0.152199,1.427497,0.128866
1515639767,-0.174838,-0.037546,0.043786,-0.111211,1.173393,0.207825
1515639767,-0.05313,-0.014846,0.043516,-0.014367,0.783315,0.358755
1515639767,0.031471,-0.003416,0.010206,0.068143,0.329341,0.511552
1515639767,0.102736,0.005019,-0.024609,0.120696,-0.014076,0.608278
1515639767,0.155391,0.00408,-0.044708,0.180454,-0.223286,0.634123
1515639767,0.172934,-0.004689,-0.065171,0.283015,-0.332179,0.609215
1515639767,0.158875,-0.012671,-0.079949,0.403647,-0.322906,0.571993
1515639767,0.137183,-0.014573,-0.086447,0.474234,-0.222428,0.524457
1515639767,0.098013,-0.023785,-0.095733,0.48562,-0.07761,0.474941
1515639767,0.031928,-0.050714,-0.109934,0.449991,0.066929,0.425398
1515639767,-0.029977,-0.082134,-0.115539,0.373964,0.189972,0.369351
1515639767,-0.080981,-0.105811,-0.107652,0.271626,0.27143,0.299268
1515639767,-0.121632,-0.10753,-0.089341,0.157999,0.304986,0.222593
1515639767,-0.156228,-0.084246,-0.062376,0.061488,0.337523,0.168308
1515639767,-0.17503,-0.051679,-0.036085,0.012284,0.341537,0.144843
1515639767,-0.171405,-0.018127,-0.02191,0.026794,0.277825,0.139264
1515639767,-0.146595,0.001423,-0.018131,0.094253,0.153813,0.132406
1515639767,-0.105483,0.022171,-0.022184,0.183593,-0.023234,0.114682
1515639767,-0.057379,0.040709,-0.032837,0.25821,-0.223805,0.113911
1515639767,-0.01672,0.043272,-0.04579,0.295212,-0.401227,0.129208
1515639767,0.02123,0.044299,-0.061206,0.299758,-0.537356,0.14679
1515639767,0.051216,0.039763,-0.079208,0.277066,-0.620455,0.154974
1515639767,0.066677,0.030123,-0.096853,0.244311,-0.657906,0.167597
1515639767,0.074402,0.024707,-0.113548,0.214397,-0.658089,0.172912
1515639767,0.07676,0.021522,-0.124037,0.197824,-0.601824,0.178464
1515639767,0.080519,0.015769,-0.130477,0.195991,-0.523157,0.187307
1515639767,0.08534,0.00901,-0.130651,0.205098,-0.471018,0.19178
1515639767,0.087755,0.00459,-0.121092,0.203579,-0.425281,0.184501
1515639767,0.086269,0.006171,-0.103945,0.191318,-0.373229,0.182574
1515639767,0.075741,0.013096,-0.08818,0.168514,-0.336127,0.177382
1515639767,0.059747,0.023347,-0.069834,0.146678,-0.288406,0.18076
1515639767,0.039808,0.029459,-0.052932,0.116298,-0.239726,0.209725
1515639767,0.022302,0.030731,-0.041622,0.086944,-0.186784,0.237641
1515639767,0.008065,0.02241,-0.038034,0.061919,-0.140164,0.250609
1515639767,-0.007243,0.006125,-0.042937,0.039177,-0.10842,0.264585
1515639767,-0.02592,-0.008968,-0.055826,0.022101,-0.109619,0.28163
1515639767,-0.03983,-0.018369,-0.069867,0.011474,-0.11503,0.294395
1515639767,-0.049685,-0.025276,-0.080735,0.008364,-0.124631,0.299685
1515639767,-0.062113,-0.0332,-0.094028,0.011634,-0.130991,0.301795
1515639767,-0.072366,-0.039807,-0.104484,0.007496,-0.144842,0.302804
1515639767,-0.079635,-0.046234,-0.111622,-0.002022,-0.155513,0.293161
1515639767,-0.082369,-0.044505,-0.114578,-0.002098,-0.14907,0.265469
1515639767,-0.081097,-0.036773,-0.112673,-0.007785,-0.115017,0.241083
1515639767,-0.082455,-0.03342,-0.10812,-0.016924,-0.05547,0.221062
1515639767,-0.078162,-0.024701,-0.099654,-0.035813,0.017837,0.205356
1515639767,-0.067903,-0.015989,-0.090188,-0.056677,0.075158,0.19918
1515639767,-0.062302,-0.01757,-0.077173,-0.081611,0.112224,0.206781
1515639767,-0.057504,-0.021275,-0.063864,-0.110681,0.135425,0.219653
1515639768,-0.051045,-0.018988,-0.052418,-0.145105,0.159659,0.23146
1515639768,-0.047922,-0.016208,-0.044084,-0.179523,0.18285,0.234735
1515639768,-0.051212,-0.012422,-0.040005,-0.206355,0.195436,0.244367
1515639768,-0.059953,-0.006555,-0.033364,-0.231177,0.221825,0.268981
1515639768,-0.071316,-0.000849,-0.027102,-0.241027,0.247234,0.296798
1515639768,-0.084738,-0.002189,-0.02373,-0.258344,0.271518,0.331001
1515639768,-0.092971,-0.010646,-0.020734,-0.289606,0.301038,0.363085
1515639768,-0.095142,-0.015044,-0.021203,-0.332628,0.331553,0.398367
1515639768,-0.098477,-0.014267,-0.026213,-0.372414,0.358902,0.431507
1515639768,-0.102932,-0.01174,-0.031889,-0.412096,0.375613,0.46567
1515639768,-0.107975,-0.010252,-0.035666,-0.435801,0.397733,0.501995
1515639768,-0.116432,0.001008,-0.035882,-0.439465,0.446542,0.541634
1515639768,-0.127528,0.021035,-0.030826,-0.40618,0.541283,0.581471
1515639768,-0.1383,0.039587,-0.013927,-0.361358,0.65944,0.645931
1515639768,-0.151035,0.043797,0.012421,-0.343096,0.764594,0.756172
1515639768,-0.177145,0.02641,0.032256,-0.393254,0.766074,0.916065
1515639768,-0.220781,-0.031976,0.036352,-0.546537,0.605275,1.09018
1515639768,-0.274006,-0.100566,0.017617,-0.735749,0.291276,1.202901
1515639768,-0.340652,-0.134993,-0.0227,-0.882278,-0.129733,1.245916
1515639768,-0.423251,-0.161582,-0.075913,-0.932936,-0.524478,1.204864
1515639768,-0.499374,-0.189366,-0.137321,-0.885902,-0.862049,1.05215
1515639768,-0.541084,-0.196493,-0.206465,-0.691704,-1.178178,0.725821
1515639768,-0.534665,-0.133688,-0.23248,-0.304501,-1.244954,0.1959
1515639768,-0.442744,-0.029145,-0.14699,0.191332,-0.844959,-0.488811
1515639768,-0.220875,-0.013369,0.01632,0.523755,-0.226108,-1.018139
1515639768,0.023691,-0.110454,0.128018,0.50525,-0.08668,-1.115667
1515639768,0.22541,-0.18012,0.161056,0.242071,-0.587562,-0.849153
1515639768,0.447946,-0.088251,0.123739,0.037625,-1.187318,-0.443351
1515639768,0.572769,0.002203,0.014927,-0.018826,-1.510921,0.024398
1515639768,0.552769,0.027461,-0.089427,0.028706,-1.544509,0.420865
1515639768,0.442639,0.123953,-0.121898,0.220457,-1.584284,0.625481
1515639768,0.245004,0.269611,-0.095714,0.404476,-1.496146,0.679226
1515639768,0.064984,0.346262,-0.051742,0.382521,-1.218641,0.65368
1515639768,-0.021645,0.306955,-0.024144,0.194475,-0.894193,0.606919
1515639768,-0.033045,0.184147,0.012954,0.006053,-0.751541,0.531708
1515639768,-0.040021,0.077684,0.051632,-0.085235,-0.815766,0.4845
1515639768,-0.073216,0.042327,0.082683,-0.099207,-0.917903,0.464891
1515639768,-0.117599,0.061861,0.110246,-0.074835,-0.898552,0.434064
1515639768,-0.156138,0.104128,0.131233,-0.022358,-0.803497,0.389697
1515639768,-0.174114,0.136513,0.131213,0.018353,-0.707442,0.341063
1515639768,-0.155239,0.131499,0.109509,0.00365,-0.626587,0.292343
1515639768,-0.106659,0.103357,0.08141,-0.052443,-0.574689,0.243485
1515639768,-0.051181,0.080024,0.051617,-0.127522,-0.657933,0.184483
1515639768,-0.004078,0.075813,0.032106,-0.212695,-0.800836,0.144424
1515639768,0.026886,0.11497,0.029467,-0.293777,-0.923597,0.138559
1515639768,0.035739,0.17824,0.032942,-0.354337,-1.068565,0.133685
1515639768,0.028483,0.218738,0.042713,-0.389267,-1.212312,0.124563
1515639768,0.007497,0.206136,0.052777,-0.40796,-1.377246,0.119628
1515639768,-0.012418,0.14026,0.048194,-0.430687,-1.567684,0.095399
1515639768,-0.021548,0.061462,0.028827,-0.46671,-1.711328,0.037238
1515639768,-0.020324,0.002274,-0.004174,-0.522856,-1.764623,-0.044018
1515639768,-0.008092,-0.035101,-0.04352,-0.596792,-1.747823,-0.136734
1515639768,0.021846,-0.063674,-0.077182,-0.678668,-1.684278,-0.232468
1515639768,0.064017,-0.07382,-0.098308,-0.759745,-1.593067,-0.329153
1515639768,0.104778,-0.060697,-0.101269,-0.835619,-1.486945,-0.419377
1515639768,0.138279,-0.036242,-0.086845,-0.910596,-1.362782,-0.49354
1515639768,0.160559,-0.015585,-0.061634,-0.993273,-1.215311,-0.551624
1515639768,0.170678,0.001222,-0.029198,-1.074881,-1.067823,-0.610771
1515639768,0.174629,0.023495,0.002076,-1.149882,-0.940502,-0.671063
1515639768,0.169165,0.043281,0.026458,-1.209884,-0.816325,-0.713236
1515639768,0.155591,0.051378,0.033981,-1.265663,-0.685789,-0.734059
1515639768,0.142549,0.052921,0.027357,-1.30517,-0.57965,-0.742181
1515639768,0.131541,0.038899,0.005564,-1.361346,-0.51722,-0.747289
1515639768,0.128198,0.010439,-0.011511,-1.397966,-0.487648,-0.74932
1515639768,0.127456,-0.00396,-0.025514,-1.383419,-0.446077,-0.758744
1515639768,0.123915,0.004831,-0.040125,-1.324444,-0.358504,-0.772223
1515639768,0.118547,0.015636,-0.060157,-1.249513,-0.263376,-0.787792
1515639768,0.112555,0.023656,-0.080624,-1.168989,-0.194786,-0.817329
1515639768,0.109448,0.02207,-0.105012,-1.079436,-0.176092,-0.860919
1515639768,0.099451,-0.002699,-0.133697,-0.979947,-0.190306,-0.90677
1515639768,0.092278,-0.046175,-0.157865,-0.87622,-0.200264,-0.943006
1515639768,0.089859,-0.086818,-0.17577,-0.770482,-0.197447,-0.980257
1515639768,0.093539,-0.1095,-0.186629,-0.654343,-0.165855,-1.020588
1515639768,0.097241,-0.120504,-0.189827,-0.520337,-0.103327,-1.055454
1515639768,0.094959,-0.12481,-0.187834,-0.375994,-0.004603,-1.080575
1515639768,0.095297,-0.12653,-0.178301,-0.237972,0.084525,-1.111068
1515639768,0.103024,-0.130323,-0.163122,-0.112508,0.146977,-1.134211
1515639768,0.112808,-0.136,-0.140243,-0.000522,0.167849,-1.144735
1515639768,0.123252,-0.148277,-0.114129,0.099881,0.171609,-1.144675
1515639768,0.135211,-0.159538,-0.083327,0.183113,0.183753,-1.130727
1515639768,0.148127,-0.166218,-0.057988,0.242746,0.206364,-1.09969
1515639768,0.159274,-0.170091,-0.041782,0.272639,0.210708,-1.063412
1515639768,0.171086,-0.175092,-0.031475,0.287601,0.212817,-1.016488
1515639768,0.180497,-0.177272,-0.024237,0.302319,0.239402,-0.977996
1515639768,0.194429,-0.18407,-0.02579,0.333798,0.300119,-0.942557
1515639768,0.208006,-0.19395,-0.04052,0.351689,0.440462,-0.88122
1515639768,0.219987,-0.210326,-0.062775,0.394065,0.589483,-0.833695
1515639768,0.254947,-0.229737,-0.07207,0.449155,0.748213,-0.814909
1515639768,0.284097,-0.238076,-0.066971,0.518365,0.883623,-0.794077
1515639768,0.299216,-0.235623,-0.044883,0.598753,0.968071,-0.781973
1515639768,0.290862,-0.200576,0.004509,0.594167,1.005045,-0.681615
1515639768,0.260128,-0.156999,0.095372,0.484911,0.705524,-0.65515
1515639768,0.211662,-0.110299,0.205665,0.199518,0.391046,-0.577661
1515639768,0.12061,-0.039315,0.29476,-0.005172,0.13115,-0.444475
1515639768,0.051977,-0.011511,0.29888,-0.063536,-0.12361,-0.332523
1515639768,-0.021516,0.007691,0.263603,0.043595,-0.368761,-0.286548
1515639768,-0.094257,0.028325,0.248234,0.353697,-0.062893,-0.258522
1515639768,-0.163681,0.026404,0.204305,0.753362,0.699736,-0.239281
1515639768,-0.153685,-0.058607,0.075318,0.973547,1.344586,-0.325075
1515639769,-0.098296,-0.204803,-0.067305,0.967047,1.572143,-0.330562
1515639769,0.000021,-0.342233,-0.12575,0.889056,1.356682,-0.242978
1515639769,0.14336,-0.394531,-0.116314,0.823761,1.044517,-0.156843
1515639769,0.251363,-0.383131,-0.061898,0.817015,0.86761,-0.005105
1515639769,0.293344,-0.340026,-0.021352,0.898168,0.775041,0.222702
1515639769,0.314862,-0.290452,-0.004385,1.057493,0.775382,0.47437
1515639769,0.338295,-0.233405,0.006815,1.277545,0.796189,0.767729
1515639769,0.303311,-0.052431,0.022987,1.535211,0.7959,1.081276
1515639769,0.160294,0.434675,0.090036,1.703268,0.778192,1.344605
1515639769,-0.264399,1.436217,0.07278,0.393671,0.1961,1.481302
1515639769,-1.063215,2.715229,0.021193,-1.031859,-0.255372,0.93405
1515639769,-1.614772,2.997168,0.557793,-0.58291,-1.284176,0.381111
1515639769,-1.371031,1.587536,0.839137,0.224148,-1.791523,-0.365726
1515639769,-0.365735,-0.017428,0.595785,0.567666,-0.656308,-0.657378
1515639769,0.184469,-0.456329,0.075024,0.484286,1.212525,-0.537983
1515639769,0.437249,-0.491165,-0.413393,0.121877,2.983157,-0.496938
1515639769,0.644735,-0.471453,-0.775993,-0.084729,3.348934,-0.525419
1515639769,0.72581,-0.535243,-0.889002,-0.032026,2.769521,-0.469083
1515639769,0.776587,-0.580303,-0.714899,-0.00938,1.778872,-0.16282
1515639769,0.733597,-0.509887,-0.468116,0.046471,0.897568,0.312337
1515639769,0.570418,-0.322496,-0.27351,0.282701,0.353869,0.55973
1515639769,0.354058,-0.189554,-0.226351,0.590735,-0.111387,0.626235
1515639769,0.151109,-0.063782,-0.229219,0.754329,-0.339198,0.672306
1515639769,-0.016098,0.134019,-0.194798,0.750642,-0.177682,0.72626
1515639769,-0.146219,0.313072,-0.08552,0.660073,0.455491,0.786325
1515639769,-0.189634,0.425617,0.053269,0.607415,0.928225,0.878813
1515639769,-0.13567,0.417798,0.016596,0.675909,0.699902,0.909912
1515639769,0.00099,0.311189,-0.119833,0.665318,0.245028,0.753501
1515639769,0.111944,0.176462,-0.124485,0.389481,0.470412,0.554918
1515639769,0.075103,0.029122,-0.023751,0.213108,1.019454,0.453632
1515639769,-0.067805,-0.099071,0.00596,0.201076,1.264104,0.400238
1515639769,-0.209911,-0.140269,-0.043408,0.047684,1.099734,0.271575
1515639769,-0.312347,-0.163405,-0.087783,-0.141681,0.900017,0.166209
1515639769,-0.305349,-0.221281,-0.065166,-0.157349,0.863738,0.178848
1515639769,-0.174226,-0.243305,-0.01728,-0.027399,0.797434,0.201031
1515639769,-0.065668,-0.210297,0.020897,0.118917,0.587617,0.237569
1515639769,-0.037029,-0.146406,0.05196,0.203422,0.360468,0.260151
1515639769,-0.040445,-0.058927,0.072035,0.265572,0.232198,0.238347
1515639769,-0.05086,0.030985,0.047714,0.343104,0.167908,0.177359
1515639769,-0.050698,0.10479,-0.01705,0.431398,0.09622,0.124877
1515639769,-0.04375,0.152022,-0.086361,0.483199,0.043363,0.116161
1515639769,-0.016735,0.160371,-0.127693,0.475782,0.037968,0.134261
1515639769,0.028343,0.120079,-0.139145,0.41475,0.051421,0.143881
1515639769,0.064286,0.054814,-0.1401,0.331429,0.049819,0.166218
1515639769,0.073992,-0.007519,-0.135045,0.272203,-0.011205,0.195795
1515639769,0.067229,-0.050071,-0.127609,0.244061,-0.082659,0.215753
1515639769,0.051044,-0.067061,-0.121664,0.21238,-0.120104,0.234777
1515639769,0.028547,-0.062207,-0.11639,0.184545,-0.113901,0.245451
1515639769,0.015399,-0.031021,-0.093261,0.185348,-0.087283,0.233832
1515639769,0.001862,0.007089,-0.060182,0.193938,-0.093542,0.197561
1515639769,-0.025888,0.032985,-0.031181,0.211255,-0.118841,0.142032
1515639769,-0.066446,0.034817,-0.01287,0.223221,-0.143106,0.088639
1515639769,-0.109365,0.019769,-0.012453,0.253289,-0.160897,0.03741
1515639769,-0.127433,0.002898,-0.017995,0.276572,-0.140463,-0.009408
1515639769,-0.112412,-0.014414,-0.033741,0.275509,-0.142524,-0.041399
1515639769,-0.082939,-0.02817,-0.063349,0.266249,-0.178739,-0.037282
1515639769,-0.048612,-0.036798,-0.094937,0.255331,-0.26288,-0.008841
1515639769,-0.016711,-0.038271,-0.122741,0.241565,-0.383217,0.029048
1515639769,0.008887,-0.033715,-0.138965,0.228027,-0.526946,0.065778
1515639769,0.025285,-0.02285,-0.139144,0.213114,-0.639802,0.087708
1515639769,0.031809,-0.013739,-0.123895,0.193016,-0.660147,0.098277
1515639769,0.031303,-0.004776,-0.103625,0.17357,-0.63897,0.088757
1515639769,0.027276,-0.002915,-0.090557,0.166474,-0.56882,0.087969
1515639769,0.012058,-0.006687,-0.074684,0.157928,-0.459345,0.094802
1515639769,0.006127,-0.000703,-0.063409,0.146286,-0.361561,0.089858
1515639769,0.003579,0.004151,-0.056668,0.125444,-0.306378,0.089004
1515639769,-0.003199,0.008929,-0.051847,0.099635,-0.288493,0.109318
1515639769,-0.00736,0.016255,-0.048046,0.071927,-0.29508,0.129534
1515639769,-0.008541,0.020483,-0.047367,0.050859,-0.325026,0.150725
1515639769,-0.012314,0.020399,-0.056089,0.035098,-0.351743,0.165533
1515639769,-0.018677,0.011846,-0.067258,0.023605,-0.378398,0.166486
1515639769,-0.024023,0.004283,-0.081716,0.019409,-0.386903,0.15579
1515639769,-0.028418,-0.004805,-0.099031,0.019293,-0.375194,0.150507
1515639769,-0.028188,-0.012237,-0.110575,0.0245,-0.361315,0.146306
1515639769,-0.026664,-0.016473,-0.117926,0.028784,-0.362349,0.144172
1515639769,-0.022529,-0.015763,-0.115542,0.031965,-0.360208,0.142046
1515639769,-0.020763,-0.014978,-0.111575,0.027628,-0.353845,0.138872
1515639769,-0.015223,-0.015697,-0.110087,0.015725,-0.339008,0.131463
1515639769,-0.006762,-0.012798,-0.10621,0.000387,-0.300783,0.118816
1515639769,-0.002773,-0.007845,-0.095243,-0.009924,-0.230625,0.103099
1515639769,-0.005042,-0.000405,-0.080543,-0.013836,-0.158332,0.103387
1515639769,-0.007885,0.005802,-0.066599,-0.033815,-0.080863,0.126076
1515639769,-0.003348,0.007897,-0.054763,-0.058904,-0.027858,0.136938
1515639769,-0.002744,0.007977,-0.047362,-0.100129,0.035708,0.137171
1515639769,-0.008695,0.004676,-0.042174,-0.143611,0.112006,0.147051
1515639769,-0.018597,0.005279,-0.039552,-0.181716,0.185134,0.162252
1515639769,-0.027506,0.00806,-0.039919,-0.217598,0.249754,0.18275
1515639769,-0.032074,0.00851,-0.042114,-0.250031,0.289925,0.211683
1515639769,-0.034626,0.001394,-0.045958,-0.291943,0.316192,0.246949
1515639769,-0.038144,-0.008295,-0.052334,-0.33368,0.324391,0.277878
1515639769,-0.047287,-0.011028,-0.059442,-0.381911,0.341055,0.31097
1515639769,-0.060986,-0.014137,-0.068337,-0.426003,0.371566,0.344119
1515639769,-0.069481,-0.017325,-0.074793,-0.467038,0.417004,0.368801
1515639769,-0.072372,-0.016874,-0.080599,-0.506005,0.468863,0.381784
1515639769,-0.076406,-0.013833,-0.083778,-0.529917,0.511221,0.401132
1515639769,-0.080884,-0.016717,-0.087502,-0.539879,0.547287,0.416197
1515639769,-0.085432,-0.019236,-0.08557,-0.534841,0.579184,0.432318
1515639769,-0.092418,-0.018878,-0.085348,-0.526503,0.601525,0.449469
1515639769,-0.102886,-0.013882,-0.085508,-0.525673,0.627005,0.470893
1515639770,-0.111172,-0.018658,-0.08541,-0.536384,0.63113,0.500754
1515639770,-0.120496,-0.025132,-0.083512,-0.552242,0.616043,0.54866
1515639770,-0.141432,-0.025909,-0.083972,-0.574121,0.561542,0.608129
1515639770,-0.167887,-0.029294,-0.086184,-0.599847,0.463422,0.667423
1515639770,-0.200263,-0.040251,-0.085112,-0.626346,0.335527,0.729801
1515639770,-0.235281,-0.056847,-0.087312,-0.638778,0.188585,0.779311
1515639770,-0.275381,-0.062911,-0.09196,-0.641569,0.039545,0.83841
1515639770,-0.316074,-0.089564,-0.097021,-0.66146,-0.109564,0.886841
1515639770,-0.348438,-0.127475,-0.114167,-0.687518,-0.286241,0.881855
1515639770,-0.367472,-0.162289,-0.136976,-0.689579,-0.517857,0.778581
1515639770,-0.367954,-0.175076,-0.155136,-0.593507,-0.740019,0.508022
1515639770,-0.350356,-0.126633,-0.14319,-0.34501,-0.82371,0.052591
1515639770,-0.301457,-0.025032,-0.063036,-0.015669,-0.546236,-0.486639
1515639770,-0.166832,0.044336,0.091076,0.15144,0.046934,-0.89675
1515639770,0.061023,0.077171,0.231154,0.017249,0.216501,-0.977156
1515639770,0.279185,0.056491,0.276589,-0.209929,-0.356643,-0.640552
1515639770,0.396788,0.006787,0.21254,-0.242348,-1.169405,-0.128914
1515639770,0.368054,-0.057949,0.06126,-0.114895,-1.722789,0.364651
1515639770,0.21846,-0.086636,-0.073117,0.052536,-1.892691,0.67854
1515639770,0.030286,-0.013548,-0.118882,0.183198,-1.81126,0.741827
1515639770,-0.138807,0.090074,-0.115121,0.223772,-1.593861,0.647841
1515639770,-0.240724,0.151962,-0.108541,0.120361,-1.188885,0.475647
1515639770,-0.256493,0.162766,-0.079728,-0.079043,-0.802518,0.290536
1515639770,-0.199361,0.124036,-0.03192,-0.198719,-0.699734,0.151236
1515639770,-0.130102,0.078699,0.016083,-0.152165,-0.87273,0.118585
1515639770,-0.101692,0.079046,0.066119,-0.006763,-1.097469,0.171056
1515639770,-0.10517,0.125033,0.120603,0.134455,-1.222258,0.218595
1515639770,-0.120558,0.174269,0.163951,0.21173,-1.257941,0.20463
1515639770,-0.124734,0.200166,0.190166,0.194436,-1.24089,0.14179
1515639770,-0.09665,0.197089,0.196652,0.111666,-1.194385,0.058783
1515639770,-0.038648,0.187487,0.191181,-0.002315,-1.124668,-0.019879
1515639770,0.01947,0.177122,0.178925,-0.119346,-1.068892,-0.057024
1515639770,0.059022,0.150519,0.153148,-0.215549,-1.065204,-0.053859
1515639770,0.074903,0.108935,0.121961,-0.3069,-1.119995,-0.040263
1515639770,0.054642,0.085585,0.094556,-0.388204,-1.21938,-0.035372
1515639770,0.007454,0.079982,0.069786,-0.460824,-1.333553,-0.05079
1515639770,-0.04017,0.067597,0.040849,-0.520508,-1.46035,-0.090769
1515639770,-0.069593,0.036549,0.006868,-0.567673,-1.557263,-0.149814
1515639770,-0.068014,-0.00262,-0.023877,-0.60709,-1.573266,-0.228787
1515639770,-0.042058,-0.022415,-0.053427,-0.646805,-1.558442,-0.301239
1515639770,0.002106,-0.038349,-0.087687,-0.689755,-1.540449,-0.372615
1515639770,0.052571,-0.052106,-0.120391,-0.731656,-1.520335,-0.43865
1515639770,0.096605,-0.058105,-0.144046,-0.762112,-1.468251,-0.501352
1515639770,0.1324,-0.048601,-0.151024,-0.7842,-1.398038,-0.568243
1515639770,0.148975,-0.031019,-0.141874,-0.818313,-1.300241,-0.638229
1515639770,0.151572,-0.012503,-0.121255,-0.883821,-1.161125,-0.716591
1515639770,0.147938,0.012384,-0.092577,-0.959337,-0.981672,-0.788401
1515639770,0.140894,0.042997,-0.061956,-1.025453,-0.779836,-0.857984
1515639770,0.134799,0.070223,-0.035941,-1.057277,-0.587407,-0.912663
1515639770,0.138732,0.07303,-0.024526,-1.066147,-0.446995,-0.950482
1515639770,0.154516,0.06072,-0.02139,-1.056318,-0.360717,-0.98211
1515639770,0.174645,0.046759,-0.017233,-1.04087,-0.302102,-0.997859
1515639770,0.190306,0.024372,-0.017312,-1.010105,-0.27958,-1.003084
1515639770,0.197798,0.003895,-0.020966,-0.957852,-0.268656,-0.998751
1515639770,0.193264,0.002315,-0.025259,-0.888651,-0.241733,-0.974092
1515639770,0.177311,0.006502,-0.035846,-0.806656,-0.211551,-0.945148
1515639770,0.156755,-0.005687,-0.052848,-0.724621,-0.185622,-0.918355
1515639770,0.13286,-0.025375,-0.068546,-0.633966,-0.167084,-0.891586
1515639770,0.110426,-0.043676,-0.081679,-0.545452,-0.148526,-0.877609
1515639770,0.095104,-0.06182,-0.092364,-0.462356,-0.123571,-0.885998
1515639770,0.090995,-0.081616,-0.101868,-0.37597,-0.107092,-0.896549
1515639770,0.103684,-0.102182,-0.114694,-0.280766,-0.11823,-0.902945
1515639770,0.136033,-0.121602,-0.127802,-0.162825,-0.160079,-0.910521
1515639770,0.177739,-0.124436,-0.134391,-0.04598,-0.19875,-0.913818
1515639770,0.209831,-0.111996,-0.129528,0.058644,-0.18963,-0.919062
1515639770,0.226855,-0.106695,-0.11279,0.138232,-0.132829,-0.910268
1515639770,0.230443,-0.124302,-0.087543,0.20275,-0.063385,-0.88117
1515639770,0.22527,-0.151508,-0.064145,0.253476,-0.003639,-0.837197
1515639770,0.210307,-0.171358,-0.046175,0.275533,0.03783,-0.783721
1515639770,0.184112,-0.181436,-0.034611,0.268931,0.060007,-0.731397
1515639770,0.145675,-0.184733,-0.022945,0.244224,0.075701,-0.682309
1515639770,0.107582,-0.180006,-0.016834,0.21982,0.059542,-0.652535
1515639770,0.073278,-0.158614,-0.020754,0.203013,0.029669,-0.654797
1515639770,0.055569,-0.123346,-0.03823,0.207434,0.122295,-0.689603
1515639770,0.069243,-0.079554,-0.030948,0.251039,0.36083,-0.716341
1515639770,0.100687,-0.063959,-0.009476,0.348941,0.512359,-0.696497
1515639770,0.137611,-0.069806,-0.029945,0.44644,0.599883,-0.590559
1515639770,0.175341,-0.083211,-0.051614,0.539797,0.565063,-0.474452
1515639770,0.193802,-0.124955,-0.05803,0.623735,0.507949,-0.400016
1515639770,0.210043,-0.148055,-0.055076,0.665477,0.50278,-0.359507
1515639770,0.257522,-0.152743,-0.055815,0.675956,0.527146,-0.292242
1515639770,0.311464,-0.164017,-0.053657,0.693871,0.555821,-0.22922
1515639770,0.357263,-0.164791,-0.0321,0.700052,0.584365,-0.132085
1515639770,0.369981,-0.141613,0.023134,0.651758,0.611484,-0.018996
1515639770,0.338429,-0.09225,0.096481,0.538381,0.627615,0.079089
1515639770,0.264094,-0.046886,0.152331,0.381531,0.607456,0.131171
1515639770,0.167192,-0.026783,0.186555,0.22479,0.574601,0.154418
1515639770,0.070481,-0.009352,0.20075,0.127441,0.585762,0.144822
1515639770,-0.023084,0.016426,0.187552,0.144119,0.736905,0.126245
1515639770,-0.07182,0.027621,0.148118,0.301825,0.998441,0.090056
1515639770,-0.061138,-0.001802,0.072051,0.512326,1.325153,0.05949
1515639770,0.007304,-0.077501,-0.003931,0.662537,1.592815,0.117137
1515639770,0.100181,-0.16713,-0.06297,0.746172,1.677101,0.211331
1515639770,0.159247,-0.207658,-0.093793,0.823084,1.574192,0.297307
1515639770,0.159563,-0.154429,-0.070792,0.906255,1.379745,0.433022
1515639770,0.10625,-0.015934,0.007761,0.984693,1.125598,0.622867
1515639770,-0.020651,0.270585,0.124937,1.050404,0.860781,0.794538
1515639770,-0.279896,0.796649,0.239619,0.97905,0.5104,0.834676
1515639770,-0.704873,1.465874,0.263551,0.193475,-0.028407,0.556026
1515639771,-1.237673,1.935155,0.416391,-0.876436,-0.464839,-0.097604
1515639771,-1.610341,1.615768,0.664459,-1.055766,-0.723309,-0.53155
1515639771,-1.245482,0.477375,0.804489,-0.595251,-0.4155,-0.983177
1515639771,-0.410334,-0.213283,0.576912,-0.064728,0.619279,-1.06193
1515639771,0.154725,-0.355781,0.057538,0.246675,1.780017,-0.960112
1515639771,0.480616,-0.352871,-0.474791,0.3018,2.37671,-0.857481
1515639771,0.706846,-0.3959,-0.734515,0.217479,2.047243,-0.692535
1515639771,0.81626,-0.488215,-0.675197,0.125625,1.295114,-0.337394
1515639771,0.787522,-0.486819,-0.47524,0.142961,0.530469,0.184055
1515639771,0.643874,-0.393077,-0.283734,0.321573,-0.123469,0.590884
1515639771,0.436756,-0.266457,-0.147772,0.527071,-0.477893,0.769726
1515639771,0.238808,-0.081618,-0.070736,0.643372,-0.458166,0.814642
1515639771,0.061628,0.109524,-0.055064,0.703787,-0.301361,0.757732
1515639771,-0.098678,0.255029,-0.073145,0.807256,-0.067738,0.69475
1515639771,-0.191797,0.339332,-0.073163,0.867848,0.294114,0.728213
1515639771,-0.154375,0.361976,-0.100673,0.82845,0.498102,0.714086
1515639771,-0.023426,0.316937,-0.177014,0.791826,0.412062,0.5762
1515639771,0.062357,0.199308,-0.217844,0.705241,0.518247,0.432669
1515639771,0.067813,0.058693,-0.20607,0.522756,0.817344,0.323977
1515639771,0.007203,-0.039916,-0.181122,0.363743,1.011239,0.232992
1515639771,-0.092973,-0.083182,-0.116432,0.244933,1.029808,0.185037
1515639771,-0.147399,-0.0716,-0.032739,0.170729,0.971851,0.235944
1515639771,-0.081619,-0.029522,0.002258,0.151554,0.861955,0.346366
1515639771,0.024215,-0.005994,-0.016473,0.166253,0.676652,0.492742
1515639771,0.085645,-0.007724,-0.046613,0.209633,0.399036,0.625975
1515639771,0.101622,-0.011468,-0.066349,0.259564,0.104573,0.704776
1515639771,0.085712,-0.002703,-0.075725,0.294459,-0.076049,0.718993
1515639771,0.053402,0.002881,-0.081967,0.332378,-0.131052,0.68361
1515639771,0.020897,0.003634,-0.091397,0.377176,-0.125363,0.632482
1515639771,-0.008145,-0.007241,-0.101107,0.416026,-0.058004,0.574139
1515639771,-0.026566,-0.012789,-0.10766,0.429677,0.073014,0.514971
1515639771,-0.042435,-0.021699,-0.111824,0.412313,0.207032,0.458997
1515639771,-0.056077,-0.047589,-0.116997,0.381707,0.275026,0.411282
1515639771,-0.064548,-0.084343,-0.124371,0.357245,0.261178,0.363245
1515639771,-0.067714,-0.106643,-0.12815,0.338761,0.18145,0.30215
1515639771,-0.075291,-0.096884,-0.123276,0.323473,0.10177,0.223997
1515639771,-0.096369,-0.07611,-0.10247,0.300245,0.069887,0.155629
1515639771,-0.124441,-0.060824,-0.080744,0.276694,0.071999,0.105524
1515639771,-0.138816,-0.049384,-0.068952,0.270384,0.059307,0.058563
1515639771,-0.136903,-0.030695,-0.063977,0.279046,0.045607,0.020129
1515639771,-0.116243,-0.00959,-0.061649,0.290847,0.040374,0.012652
1515639771,-0.08324,-0.001714,-0.057512,0.282382,0.032838,0.031807
1515639771,-0.041259,-0.00096,-0.057939,0.261359,-0.001375,0.059377
1515639771,0.001085,0.000273,-0.066586,0.229952,-0.066469,0.082558
1515639771,0.030878,0.002207,-0.078061,0.194684,-0.174129,0.103431
1515639771,0.05271,0.009301,-0.084809,0.162519,-0.272169,0.108351
1515639771,0.069182,0.028121,-0.083453,0.131917,-0.311688,0.106046
1515639771,0.079997,0.053033,-0.075887,0.095228,-0.274674,0.108312
1515639771,0.089457,0.077783,-0.065046,0.05379,-0.188791,0.117165
1515639771,0.103245,0.087863,-0.053778,0.019741,-0.09437,0.121784
1515639771,0.118876,0.089652,-0.047542,0.00063,0.002305,0.117898
1515639771,0.129161,0.088471,-0.045357,-0.007861,0.106498,0.120454
1515639771,0.133367,0.074972,-0.049759,-0.023779,0.205283,0.13257
1515639771,0.128605,0.058115,-0.058202,-0.049232,0.295489,0.146775
1515639771,0.116682,0.041603,-0.068012,-0.085187,0.367553,0.167302
1515639771,0.101051,0.024694,-0.074328,-0.122949,0.405589,0.182363
1515639771,0.081878,0.015535,-0.081067,-0.157353,0.427703,0.19203
1515639771,0.054346,0.007886,-0.085887,-0.188753,0.470031,0.199642
1515639771,0.01883,0.000838,-0.090351,-0.216069,0.532582,0.215871
1515639771,-0.023177,-0.004798,-0.09079,-0.23918,0.602619,0.234272
1515639771,-0.061797,-0.007676,-0.092032,-0.25686,0.663103,0.248365
1515639771,-0.09259,-0.014219,-0.095404,-0.268787,0.681077,0.258021
1515639771,-0.11504,-0.027367,-0.095351,-0.283624,0.668243,0.252632
1515639771,-0.133137,-0.038748,-0.090852,-0.297157,0.630995,0.235424
1515639771,-0.149469,-0.04099,-0.085839,-0.311699,0.587353,0.216052
1515639771,-0.163152,-0.035938,-0.080025,-0.327471,0.55966,0.189277
1515639771,-0.165581,-0.023302,-0.074807,-0.333826,0.552256,0.15513
1515639771,-0.150162,-0.012384,-0.070585,-0.333923,0.56083,0.126381
1515639771,-0.123241,-0.002301,-0.064067,-0.338519,0.592753,0.106252
1515639771,-0.093631,0.006818,-0.053544,-0.351871,0.646923,0.103266
1515639771,-0.069404,0.012556,-0.043701,-0.382268,0.696695,0.119442
1515639771,-0.053411,0.011793,-0.03823,-0.430741,0.73783,0.146235
1515639771,-0.045389,0.006062,-0.0366,-0.490735,0.755489,0.180392
1515639771,-0.044341,-0.001456,-0.038167,-0.551516,0.744443,0.211237
1515639771,-0.052583,0.000457,-0.041753,-0.603724,0.730266,0.234609
1515639771,-0.06759,0.003327,-0.043503,-0.646589,0.743798,0.253831
1515639771,-0.084372,0.016001,-0.042881,-0.667238,0.779815,0.26356
1515639771,-0.102538,0.034414,-0.034291,-0.676326,0.836092,0.281907
1515639771,-0.117889,0.053909,-0.018289,-0.674914,0.911553,0.305664
1515639771,-0.131163,0.077951,0.001481,-0.676736,0.990169,0.336894
1515639771,-0.14584,0.086297,0.023092,-0.701653,1.027154,0.378608
1515639771,-0.160581,0.07641,0.038627,-0.749281,0.983147,0.434909
1515639771,-0.178474,0.041739,0.046683,-0.831338,0.854896,0.507914
1515639771,-0.206005,0.002794,0.030204,-0.966995,0.635897,0.598652
1515639771,-0.242125,-0.043406,-0.029446,-1.13162,0.318933,0.674059
1515639771,-0.269322,-0.069115,-0.118959,-1.253939,-0.065725,0.692712
1515639771,-0.27546,-0.092166,-0.207982,-1.276531,-0.491082,0.621701
1515639771,-0.251182,-0.106207,-0.26669,-1.142732,-0.85048,0.468943
1515639771,-0.208015,-0.089949,-0.266557,-0.800714,-0.981929,0.208456
1515639771,-0.143091,-0.053967,-0.200697,-0.287091,-0.747386,-0.163488
1515639771,-0.047986,-0.054639,-0.096863,0.212643,-0.076811,-0.569932
1515639771,0.048979,-0.109579,-0.011019,0.443638,0.659835,-0.765148
1515639771,0.107965,-0.21012,0.007275,0.238343,0.89568,-0.706732
1515639771,0.273724,-0.190207,-0.018985,-0.282305,0.497611,-0.476179
1515639771,0.426135,-0.110252,-0.038952,-0.63728,-0.121862,-0.198456
1515639771,0.432288,-0.036088,-0.05855,-0.628142,-0.608323,0.032005
1515639771,0.299431,0.081529,-0.068291,-0.372076,-0.778521,0.2308
1515639771,0.129744,0.19421,-0.06039,-0.035239,-0.689632,0.342189
1515639771,0.007485,0.257515,-0.048196,0.172404,-0.397061,0.34666
1515639772,-0.047886,0.242348,-0.015832,0.115157,-0.118641,0.285911
1515639772,-0.062243,0.15613,0.033071,-0.055648,-0.027027,0.254215
1515639772,-0.074194,0.065785,0.087459,-0.159281,-0.136158,0.284646
1515639772,-0.095212,0.018855,0.124321,-0.16289,-0.311736,0.322319
1515639772,-0.122802,0.015581,0.141623,-0.133999,-0.425363,0.321876
1515639772,-0.148621,0.038552,0.160724,-0.133968,-0.430587,0.280278
1515639772,-0.1534,0.06344,0.183053,-0.17632,-0.364725,0.204831
1515639772,-0.13568,0.094734,0.206469,-0.224385,-0.261641,0.114605
1515639772,-0.09494,0.136369,0.22851,-0.249884,-0.170177,0.049932
1515639772,-0.0396,0.167625,0.230103,-0.260813,-0.146772,0.018038
1515639772,0.02547,0.168632,0.205826,-0.268713,-0.2138,0.008169
1515639772,0.081728,0.152782,0.165733,-0.289933,-0.338359,0.012989
1515639772,0.108989,0.137105,0.120304,-0.334481,-0.480097,0.036923
1515639772,0.107315,0.127337,0.083821,-0.39719,-0.621971,0.069373
1515639772,0.093717,0.106735,0.051903,-0.470512,-0.772373,0.082592
1515639772,0.06698,0.062234,0.024928,-0.562404,-0.882408,0.069314
1515639772,0.033185,0.010382,0.004821,-0.649068,-0.983788,-0.000432
1515639772,0.006568,-0.027488,-0.007493,-0.735458,-1.004297,-0.085841
1515639772,-0.01185,-0.032898,-0.007492,-0.808712,-0.948123,-0.184793
1515639772,-0.013931,-0.014692,-0.001056,-0.864449,-0.825915,-0.286672
1515639772,0.004953,0.005732,0.007503,-0.908505,-0.696172,-0.391708
1515639772,0.04146,0.021886,0.020034,-0.956654,-0.584578,-0.482966
1515639772,0.082932,0.037403,0.037216,-1.013057,-0.501812,-0.547693
1515639772,0.124701,0.055772,0.05606,-1.077808,-0.438287,-0.586914
1515639772,0.162176,0.067126,0.067395,-1.13913,-0.396094,-0.593173
1515639772,0.186347,0.065439,0.059741,-1.183152,-0.373012,-0.565384
1515639772,0.19987,0.057421,0.038015,-1.220364,-0.389291,-0.512161
1515639772,0.200062,0.042669,0.010745,-1.256362,-0.420467,-0.454735
1515639772,0.186551,0.014375,-0.009614,-1.275204,-0.457937,-0.39733
1515639772,0.157361,-0.015864,-0.022611,-1.25043,-0.475977,-0.35155
1515639772,0.129055,-0.041352,-0.027675,-1.1982,-0.461882,-0.334408
1515639772,0.099123,-0.05827,-0.024792,-1.148075,-0.453046,-0.352472
1515639772,0.073595,-0.050208,-0.006781,-1.077902,-0.419594,-0.394952
1515639772,0.057905,-0.026774,-0.01256,-0.981969,-0.3987,-0.456655
1515639772,0.05191,-0.020502,-0.069563,-0.88916,-0.385284,-0.505592
1515639772,0.066476,-0.032927,-0.137329,-0.835119,-0.340245,-0.53417
1515639772,0.10097,-0.053444,-0.178662,-0.776061,-0.262213,-0.564748
1515639772,0.129473,-0.068954,-0.192855,-0.695911,-0.155343,-0.593065
1515639772,0.135711,-0.066269,-0.197576,-0.609554,-0.027157,-0.619156
1515639772,0.12658,-0.06785,-0.188878,-0.528301,0.076515,-0.641089
1515639772,0.113435,-0.080108,-0.170708,-0.444531,0.141882,-0.649317
1515639772,0.11046,-0.09252,-0.147229,-0.352102,0.196636,-0.643723
1515639772,0.132167,-0.094774,-0.117381,-0.266344,0.277921,-0.634831
1515639772,0.162974,-0.086798,-0.087388,-0.182787,0.366622,-0.61418
1515639772,0.177398,-0.079017,-0.067757,-0.084131,0.442595,-0.564785
1515639772,0.179516,-0.074458,-0.054764,0.023234,0.502618,-0.499463
1515639772,0.181995,-0.075852,-0.048374,0.110573,0.534842,-0.422537
1515639772,0.189303,-0.083983,-0.04796,0.165185,0.525464,-0.369245
1515639772,0.20953,-0.090242,-0.047586,0.165531,0.492401,-0.323535
1515639772,0.22123,-0.093272,-0.036453,0.132897,0.444262,-0.281101
1515639772,0.224845,-0.091947,-0.022743,0.10359,0.383384,-0.242982
1515639772,0.22124,-0.091399,-0.011408,0.086814,0.352368,-0.207934
1515639772,0.212929,-0.091511,0.000336,0.098602,0.350262,-0.182348
1515639772,0.206671,-0.094025,0.0112,0.117396,0.39606,-0.165098
1515639772,0.19838,-0.093903,0.027022,0.138853,0.498204,-0.132696
1515639772,0.184922,-0.087001,0.035788,0.149106,0.653456,-0.100086
1515639772,0.171581,-0.08887,0.02589,0.14614,0.739499,-0.069896
1515639772,0.145448,-0.097729,0.004715,0.158813,0.756508,-0.034642
1515639772,0.141264,-0.104625,0.00121,0.158618,0.777738,-0.013232
1515639772,0.155161,-0.108672,0.006521,0.138214,0.788253,-0.012133
1515639772,0.17257,-0.115824,0.010219,0.101859,0.791223,-0.004674
1515639772,0.174907,-0.10629,0.030669,0.03896,0.777018,0.003767
1515639772,0.150216,-0.084111,0.061024,-0.076042,0.73594,0.002478
1515639772,0.117628,-0.06006,0.1363,-0.181445,0.696033,-0.017987
1515639772,0.085933,-0.018634,0.224247,-0.197129,0.660857,-0.0192
1515639772,0.046427,0.038983,0.236117,-0.08522,0.582709,0.022116
1515639772,0.053615,0.078743,0.129273,-0.002655,0.557461,0.109472
1515639772,0.136103,0.063668,-0.021765,0.005632,0.696678,0.173999
1515639772,0.223768,-0.036025,-0.135353,-0.020531,0.969787,0.198537
1515639772,0.253889,-0.170032,-0.172596,0.011301,1.212398,0.217648
1515639772,0.240161,-0.257576,-0.175857,0.115464,1.379868,0.254613
1515639772,0.217069,-0.274316,-0.160585,0.262678,1.51671,0.310668
1515639772,0.192791,-0.233581,-0.122413,0.424112,1.620641,0.379392
1515639772,0.162737,-0.172154,-0.086179,0.572217,1.667058,0.451075
1515639772,0.128066,-0.106971,-0.052684,0.686636,1.661173,0.518265
1515639772,0.088228,-0.052077,-0.017596,0.766342,1.598766,0.571356
1515639772,0.056921,-0.018867,0.018436,0.822461,1.543714,0.607412
1515639772,0.044171,-0.008344,0.049978,0.875177,1.507823,0.623284
1515639772,0.041609,-0.000954,0.059911,0.921979,1.529377,0.618064
1515639772,0.030132,0.029675,0.070354,0.919804,1.64212,0.605722
1515639772,-0.014452,0.120457,0.108615,0.84489,1.873497,0.618341
1515639772,-0.115434,0.340806,0.196759,0.650202,2.328811,0.528393
1515639772,-0.32529,0.748442,0.304189,0.273669,2.903719,0.233086
1515639772,-0.686845,1.117722,0.298041,-0.148107,3.18193,-0.182833
1515639772,-1.112158,1.194956,0.301718,-0.905777,2.504713,-0.794641
1515639772,-1.550757,1.010966,0.463989,-1.235363,0.241535,-1.110906
1515639772,-1.683362,0.487116,0.597789,-0.805771,-1.507765,-1.002578
1515639772,-1.085616,0.011287,0.57833,-0.296633,-1.222453,-0.784779
1515639772,-0.304364,-0.168616,0.274512,-0.055663,0.373564,-0.536266
1515639772,0.20452,-0.178715,-0.1546,0.0065,1.891232,-0.421409
1515639772,0.464143,-0.237165,-0.454978,0.046655,2.157276,-0.394734
1515639772,0.62046,-0.320696,-0.466239,0.139426,1.414299,-0.330508
1515639772,0.709862,-0.315149,-0.297613,0.253193,0.387219,-0.145881
1515639772,0.708577,-0.280604,-0.169169,0.361074,-0.249875,0.162907
1515639772,0.660986,-0.242799,-0.118644,0.495855,-0.251829,0.430549
1515639772,0.580224,-0.161377,-0.115835,0.586034,0.040782,0.590611
1515639772,0.46245,-0.056871,-0.139849,0.577383,0.385043,0.703926
1515639772,0.317866,0.04607,-0.153386,0.539777,0.739778,0.81407
1515639772,0.175172,0.152781,-0.158043,0.534168,0.990488,0.914214
1515639772,0.07772,0.260042,-0.158062,0.546268,0.956462,0.942868
1515639773,0.040683,0.322717,-0.159668,0.536522,0.638595,0.876563
1515639773,0.055383,0.290317,-0.140884,0.499042,0.41868,0.681638
1515639773,0.067562,0.185027,-0.130917,0.409167,0.635734,0.401019
1515639773,-0.01205,0.060973,-0.162345,0.267782,1.095968,0.151205
1515639773,-0.181922,-0.041554,-0.184955,0.132775,1.564514,0.004836
1515639773,-0.322242,-0.061385,-0.142094,0.019222,1.916156,-0.121736
1515639773,-0.33621,-0.009473,-0.056562,-0.076391,2.074242,-0.20217
1515639773,-0.233301,0.039963,0.002012,-0.132611,1.926963,-0.114303
1515639773,-0.085714,0.053385,0.002273,-0.109614,1.549235,0.035578
1515639773,0.039621,0.054034,-0.039053,-0.029464,1.118621,0.19913
1515639773,0.129016,0.046381,-0.095947,0.042304,0.778445,0.323597
1515639773,0.190489,0.033861,-0.14815,0.098708,0.586136,0.387883
1515639773,0.210898,0.008965,-0.182349,0.186922,0.418455,0.450144
1515639773,0.191356,-0.029177,-0.183972,0.273656,0.293322,0.512581
1515639773,0.159258,-0.054028,-0.162439,0.316233,0.203088,0.554887
1515639773,0.110982,-0.063166,-0.132888,0.311514,0.140267,0.57702
1515639773,0.048508,-0.076736,-0.100312,0.267052,0.097485,0.571497
1515639773,-0.02281,-0.085296,-0.075725,0.216213,0.049427,0.531835
1515639773,-0.100136,-0.077576,-0.061552,0.181343,0.005814,0.453825
1515639773,-0.18391,-0.070938,-0.053473,0.171759,-0.003536,0.331184
1515639773,-0.260889,-0.064212,-0.041071,0.165674,0.064827,0.177938
1515639773,-0.313663,-0.050807,-0.024355,0.161182,0.189548,0.035583
1515639773,-0.323055,-0.037748,-0.012367,0.16532,0.307857,-0.069481
1515639773,-0.276055,-0.034414,-0.009817,0.174532,0.346326,-0.127956
1515639773,-0.181472,-0.036276,-0.02143,0.180358,0.296385,-0.135619
1515639773,-0.072245,-0.035732,-0.042239,0.188821,0.196433,-0.120025
1515639773,0.022373,-0.027241,-0.071709,0.198467,0.0858,-0.083153
1515639773,0.089241,-0.009107,-0.097999,0.20266,-0.012161,-0.018514
1515639773,0.135697,0.026572,-0.121553,0.179817,-0.07729,0.038783
1515639773,0.166102,0.055687,-0.130084,0.141806,-0.121232,0.092958
1515639773,0.182727,0.064895,-0.123632,0.113172,-0.140653,0.146173
1515639773,0.187299,0.072489,-0.106554,0.089848,-0.156858,0.1994
1515639773,0.188598,0.086918,-0.089006,0.079234,-0.162326,0.237751
1515639773,0.180384,0.094381,-0.070032,0.072806,-0.160253,0.245219
1515639773,0.160129,0.08823,-0.054133,0.046756,-0.117899,0.261367
1515639773,0.139924,0.083593,-0.042403,0.008768,-0.0575,0.261591
1515639773,0.122033,0.079885,-0.027946,-0.038025,0.027392,0.225664
1515639773,0.092023,0.068035,-0.013995,-0.085948,0.118654,0.190827
1515639773,0.047903,0.049703,-0.008791,-0.134772,0.193914,0.178315
1515639773,0.007662,0.032028,-0.009639,-0.174814,0.245797,0.177438
1515639773,-0.029197,0.013736,-0.018399,-0.207368,0.296662,0.174428
1515639773,-0.059554,0.001808,-0.034547,-0.234616,0.350774,0.160773
1515639773,-0.081405,-0.005336,-0.055217,-0.259632,0.394285,0.133214
1515639773,-0.090748,-0.01361,-0.071752,-0.278206,0.43466,0.102451
1515639773,-0.088483,-0.021171,-0.082206,-0.292345,0.459102,0.079093
1515639773,-0.073553,-0.021417,-0.091588,-0.303119,0.467577,0.066329
1515639773,-0.051576,-0.018884,-0.102604,-0.318094,0.468575,0.055664
1515639773,-0.029383,-0.012551,-0.107679,-0.334218,0.47807,0.048232
1515639773,-0.005861,-0.009342,-0.106583,-0.344053,0.500354,0.046185
1515639773,0.015554,-0.007415,-0.106607,-0.350701,0.524771,0.048412
1515639773,0.031639,-0.002598,-0.10798,-0.364728,0.5385,0.049522
1515639773,0.042682,-0.005962,-0.110659,-0.392651,0.553216,0.054898
1515639773,0.049568,-0.01171,-0.11693,-0.413009,0.559461,0.063442
1515639773,0.052649,-0.007067,-0.119227,-0.43013,0.562527,0.075173
1515639773,0.054812,0.003307,-0.11479,-0.44292,0.560296,0.093285
1515639773,0.053581,0.0094,-0.107343,-0.46327,0.566503,0.118886
1515639773,0.047477,0.010086,-0.098277,-0.490097,0.579056,0.140243
1515639773,0.03226,0.006949,-0.089351,-0.513605,0.579946,0.157292
1515639773,0.008599,-0.002534,-0.086022,-0.53391,0.580879,0.166884
1515639773,-0.020366,-0.006201,-0.078152,-0.556472,0.593511,0.166924
1515639773,-0.049111,0.001935,-0.065996,-0.591138,0.641185,0.155368
1515639773,-0.071629,0.013038,-0.052146,-0.635938,0.741986,0.142958
1515639773,-0.08738,0.013117,-0.033215,-0.678982,0.882159,0.131779
1515639773,-0.089358,0.009827,-0.015069,-0.72412,1.017017,0.106713
1515639773,-0.076702,0.011225,-0.001391,-0.75845,1.138146,0.063471
1515639773,-0.058758,0.009785,0.009777,-0.790655,1.26139,0.0341
1515639773,-0.035651,0.014813,0.00637,-0.819552,1.37503,0.024946
1515639773,-0.012217,0.034677,-0.007583,-0.851291,1.452462,0.03377
1515639773,0.001766,0.054274,-0.023951,-0.888797,1.464945,0.063653
1515639773,-0.002652,0.058974,-0.044524,-0.930895,1.401839,0.116684
1515639773,-0.021009,0.04847,-0.0638,-0.978511,1.248273,0.188541
1515639773,-0.045825,0.024949,-0.081686,-1.0149,1.038429,0.247382
1515639773,-0.078606,0.016598,-0.093912,-1.005615,0.855477,0.286097
1515639773,-0.111086,0.023649,-0.100385,-0.97633,0.701451,0.282295
1515639773,-0.136985,0.015781,-0.116078,-0.959514,0.50813,0.219693
1515639773,-0.151575,0.009171,-0.151685,-0.953761,0.240485,0.078966
1515639773,-0.146626,0.012302,-0.192197,-0.979158,-0.014391,-0.142744
1515639773,-0.105418,0.014578,-0.210551,-1.010265,-0.125582,-0.432111
1515639773,-0.028066,0.023029,-0.1925,-1.024221,-0.026026,-0.764338
1515639773,0.076476,0.043607,-0.13618,-0.974041,0.29184,-1.059407
1515639773,0.205438,0.104901,-0.012606,-0.819212,0.731312,-1.24626
1515639773,0.352106,0.14481,0.153858,-0.637506,0.836496,-1.211638
1515639773,0.514757,0.180683,0.245034,-0.522418,0.441064,-1.001023
1515639773,0.674852,0.295928,0.182481,-0.524308,0.104232,-0.661232
1515639773,0.749046,0.329493,0.0691,-0.685977,0.163774,-0.121637
1515639773,0.698459,0.242147,-0.007384,-0.836339,0.158548,0.399581
1515639773,0.542132,0.144035,-0.033764,-0.811971,-0.134411,0.684123
1515639773,0.272868,0.130363,-0.016914,-0.730979,-0.325624,0.796398
1515639773,0.03623,0.212065,0.025249,-0.671758,-0.154008,0.775797
1515639773,-0.093743,0.284592,0.085362,-0.59793,0.269833,0.706106
1515639773,-0.151817,0.285447,0.149546,-0.513036,0.655401,0.654385
1515639773,-0.151054,0.239715,0.190077,-0.440296,0.972844,0.604522
1515639773,-0.107483,0.180063,0.219582,-0.4006,1.174118,0.582961
1515639773,-0.072356,0.124582,0.20423,-0.382439,1.175252,0.5979
1515639773,-0.055578,0.076321,0.148683,-0.395286,1.068815,0.605996
1515639773,-0.049166,0.022533,0.090448,-0.422977,0.949578,0.592711
1515639773,-0.048339,-0.026732,0.05256,-0.448783,0.853856,0.532616
1515639773,-0.056532,-0.046997,0.016884,-0.476081,0.798659,0.417246
1515639773,-0.079419,-0.04224,-0.013694,-0.494449,0.811671,0.258444
1515639774,-0.10233,-0.015952,-0.021107,-0.478507,0.920658,0.07126
1515639774,-0.112448,0.005647,-0.016797,-0.425418,1.056394,-0.094478
1515639774,-0.104232,-0.005742,-0.01122,-0.384615,1.139837,-0.20926
1515639774,-0.073668,-0.035971,0.005198,-0.392961,1.116519,-0.263726
1515639774,-0.028573,-0.059694,0.018732,-0.435527,0.881186,-0.235906
1515639774,0.032741,-0.07833,0.01989,-0.467758,0.466033,-0.143775
1515639774,0.110913,-0.08832,0.021268,-0.467716,0.029756,-0.030389
1515639774,0.185536,-0.089119,0.0311,-0.462058,-0.216087,0.070975
1515639774,0.242948,-0.081345,0.048427,-0.481823,-0.266397,0.165644
1515639774,0.282148,-0.067954,0.053481,-0.517431,-0.226399,0.258536
1515639774,0.314291,-0.036015,0.051094,-0.559931,-0.13852,0.322832
1515639774,0.345678,0.005976,0.049027,-0.613233,-0.040017,0.361579
1515639774,0.360861,0.039151,0.044157,-0.665487,0.060628,0.39927
1515639774,0.35296,0.059674,0.037791,-0.730845,0.19093,0.455196
1515639774,0.333783,0.069986,0.036269,-0.789021,0.352098,0.519779
1515639774,0.307042,0.072461,0.053228,-0.826412,0.464447,0.593772
1515639774,0.263104,0.068197,0.064864,-0.861014,0.509819,0.664298
1515639774,0.206433,0.055446,0.071943,-0.909473,0.550882,0.720939
1515639774,0.146891,0.037071,0.086977,-0.959328,0.624945,0.762789
1515639774,0.105082,0.032068,0.111872,-0.98773,0.689622,0.782229
1515639774,0.07688,0.035271,0.127078,-0.997595,0.715084,0.784459
1515639774,0.051647,0.029147,0.135974,-1.000264,0.769331,0.776149
1515639774,0.035446,0.013625,0.147612,-0.982822,0.841813,0.746598
1515639774,0.039627,-0.007086,0.1198,-0.967092,0.869674,0.692347
1515639774,0.055803,-0.026528,0.063704,-0.966383,0.904847,0.65944
1515639774,0.072906,-0.043539,0.01868,-0.941168,0.947566,0.638298
1515639774,0.089108,-0.064619,-0.010856,-0.897456,0.956375,0.615966
1515639774,0.096876,-0.088106,-0.033438,-0.874909,0.94484,0.60314
1515639774,0.094168,-0.107788,-0.037155,-0.861989,0.934303,0.592443
1515639774,0.087581,-0.120417,-0.031396,-0.834996,0.904732,0.572084
1515639774,0.079089,-0.126166,-0.045395,-0.797333,0.877313,0.565595
1515639774,0.074559,-0.133713,-0.05498,-0.740478,0.854243,0.563396
1515639774,0.07065,-0.14395,-0.059448,-0.681508,0.834345,0.577203
1515639774,0.065254,-0.161515,-0.058067,-0.639143,0.872868,0.57951
1515639774,0.053936,-0.187388,-0.048822,-0.616089,0.919771,0.589304
1515639774,0.042799,-0.205583,-0.051854,-0.578724,0.922178,0.564816
1515639774,0.02719,-0.219974,-0.059035,-0.548046,0.951187,0.511643
1515639774,0.014454,-0.237072,-0.062104,-0.5076,0.964317,0.449881
1515639774,0.011356,-0.242417,-0.079097,-0.463784,0.96046,0.384856
1515639774,0.013579,-0.246517,-0.085123,-0.394171,0.938765,0.277128
1515639774,0.018163,-0.250119,-0.063319,-0.316557,0.975507,0.21548
1515639774,0.030963,-0.260324,-0.032215,-0.223101,1.031463,0.160311
1515639774,0.054915,-0.256503,-0.014157,-0.113473,1.071615,0.082701
1515639774,0.082934,-0.254597,-0.005248,-0.013633,1.130799,0.031817
1515639774,0.12059,-0.258965,0.001598,0.074427,1.193073,-0.007336
1515639774,0.163106,-0.264197,0.003418,0.156062,1.257386,-0.029431
1515639774,0.178394,-0.267864,0.002125,0.236767,1.308892,-0.02812
1515639774,0.164962,-0.269422,-0.000268,0.330052,1.38598,-0.014969
1515639774,0.137829,-0.262912,0.02071,0.463405,1.517531,-0.00585
1515639774,0.108196,-0.238751,0.066499,0.604691,1.710852,-0.017801
1515639774,0.083927,-0.205845,0.112579,0.721277,1.915791,-0.055302
1515639774,0.067266,-0.17816,0.140983,0.831706,2.09413,-0.103574
1515639774,0.057174,-0.16524,0.115273,0.920809,2.158557,-0.151247
1515639774,0.066978,-0.168767,0.058283,1.016467,2.100656,-0.167423
1515639774,0.089631,-0.179872,0.014674,1.117322,1.951179,-0.120001
1515639774,0.108511,-0.169613,-0.031002,1.222851,1.763298,-0.015169
1515639774,0.107924,-0.098819,-0.031872,1.321074,1.560387,0.140776
1515639774,0.049851,0.079977,0.073685,1.429986,1.468102,0.321697
1515639774,-0.122733,0.417945,0.258116,1.422485,1.583786,0.406377
1515639774,-0.5037,1.010996,0.38568,0.376965,1.397873,0.016015
1515639774,-1.109465,1.730991,0.495281,-1.228,0.383184,-0.703087
1515639774,-1.785911,1.884304,0.792037,-1.518214,-1.073699,-0.52997
1515639774,-1.903819,1.249177,0.965666,-0.85253,-1.715013,-0.23266
1515639774,-1.012731,0.364042,0.745646,-0.46605,-0.812812,-0.358916
1515639774,-0.078077,-0.199432,0.306177,-0.182733,0.142279,-0.624666
1515639774,0.344227,-0.332739,-0.124075,0.240276,0.692804,-0.809887
1515639774,0.560664,-0.399768,-0.36036,0.451426,1.175647,-0.756678
1515639774,0.700609,-0.418014,-0.408457,0.431789,1.225136,-0.58805
1515639774,0.806039,-0.371549,-0.323634,0.26945,1.006878,-0.419497
1515639774,0.813544,-0.375303,-0.178164,0.14654,0.806602,-0.105866
1515639774,0.614305,-0.415052,-0.0748,0.21751,0.777525,0.23626
1515639774,0.34315,-0.375165,-0.051972,0.364588,0.826794,0.455072
1515639774,0.102746,-0.297229,-0.100852,0.407231,0.840685,0.534038
1515639774,-0.083279,-0.207947,-0.146922,0.368923,0.93302,0.518398
1515639774,-0.209377,-0.034319,-0.12162,0.370153,1.022514,0.449463
1515639774,-0.300774,0.18426,-0.06155,0.343058,0.837555,0.3421
1515639774,-0.3342,0.355394,0.024972,0.267821,0.657683,0.215546
1515639774,-0.273102,0.410488,0.113124,0.257893,0.680405,0.022678
1515639774,-0.157542,0.342026,0.122423,0.347643,0.778253,-0.225282
1515639774,-0.06399,0.180591,0.049133,0.393184,0.921365,-0.381401
1515639774,-0.042759,0.03924,-0.069916,0.351068,0.965835,-0.401498
1515639774,-0.059618,-0.050644,-0.169447,0.212813,1.008635,-0.396061
1515639774,-0.029865,-0.079793,-0.178537,0.060537,1.172661,-0.423193
1515639774,0.039381,-0.049683,-0.124976,-0.009949,1.280624,-0.375886
1515639774,0.115081,-0.007281,-0.091839,-0.017165,1.259061,-0.264038
1515639774,0.199875,0.024967,-0.102385,-0.011911,1.165206,-0.13222
1515639774,0.270829,0.038842,-0.143291,0.004443,1.027862,-0.020826
1515639774,0.289821,0.039544,-0.174074,0.060286,0.893984,0.06608
1515639774,0.258909,0.033518,-0.173843,0.139456,0.777323,0.125349
1515639774,0.206734,0.016984,-0.172875,0.210151,0.652154,0.164326
1515639774,0.146619,0.006638,-0.171937,0.243217,0.550186,0.192717
1515639774,0.089301,0.003991,-0.152213,0.228534,0.523444,0.224585
1515639774,0.039682,-0.006456,-0.135797,0.181534,0.523122,0.248015
1515639774,-0.005795,-0.026238,-0.131252,0.126024,0.517488,0.245833
1515639774,-0.052952,-0.041473,-0.128759,0.079076,0.508795,0.208463
1515639774,-0.110972,-0.043846,-0.115258,0.04583,0.518299,0.149848
1515639774,-0.174006,-0.040426,-0.088949,0.050791,0.55461,0.094561
1515639774,-0.223911,-0.035181,-0.061123,0.055702,0.596238,0.041428
1515639774,-0.247532,-0.033374,-0.041518,0.046033,0.598456,-0.023598
1515639775,-0.237949,-0.034963,-0.031164,0.022788,0.568675,-0.082364
1515639775,-0.198649,-0.036461,-0.030898,0.03424,0.488016,-0.126391
1515639775,-0.14243,-0.034347,-0.029338,0.046565,0.428585,-0.147943
1515639775,-0.083345,-0.026728,-0.033149,0.04699,0.384988,-0.149184
1515639775,-0.027444,-0.019534,-0.040981,0.029082,0.35935,-0.139697
1515639775,0.020305,-0.011387,-0.04685,0.000334,0.349586,-0.126957
1515639775,0.057906,-0.000408,-0.054784,-0.026493,0.362131,-0.104536
1515639775,0.085172,0.001575,-0.070495,-0.049263,0.397044,-0.08202
1515639775,0.097402,0.003021,-0.086355,-0.059149,0.426698,-0.045654
1515639775,0.094005,0.00029,-0.096782,-0.066705,0.436151,-0.012571
1515639775,0.085573,0.004016,-0.106145,-0.081839,0.455168,0.008823
1515639775,0.068938,0.00499,-0.109505,-0.10329,0.464566,0.031238
1515639775,0.047875,0.012343,-0.099277,-0.147183,0.473828,0.050438
1515639775,0.03373,0.023022,-0.078802,-0.204038,0.496889,0.054768
1515639775,0.021228,0.031252,-0.056482,-0.258074,0.559326,0.053927
1515639775,0.010368,0.031926,-0.043924,-0.289714,0.626145,0.053114
1515639775,-0.000965,0.031066,-0.042651,-0.303263,0.700526,0.050211
1515639775,-0.010028,0.032548,-0.050172,-0.312135,0.733455,0.045009
1515639775,-0.021014,0.020035,-0.059277,-0.318341,0.712154,0.040654
1515639775,-0.033637,0.011143,-0.064816,-0.337234,0.676966,0.034107
1515639775,-0.046726,0.010324,-0.069946,-0.35512,0.648167,0.027588
1515639775,-0.056944,0.019,-0.067172,-0.370991,0.632124,0.027516
1515639775,-0.059,0.029082,-0.057753,-0.388959,0.611806,0.027423
1515639775,-0.048516,0.040724,-0.044601,-0.418631,0.586132,0.018777
1515639775,-0.025146,0.054614,-0.033063,-0.450677,0.584904,0.012362
1515639775,0.009302,0.060541,-0.024566,-0.496907,0.614397,0.020987
1515639775,0.054363,0.060785,-0.018378,-0.561443,0.658657,0.037125
1515639775,0.106178,0.051408,-0.005952,-0.619597,0.706131,0.05861
1515639775,0.14476,0.03296,0.010493,-0.675776,0.77061,0.088691
1515639775,0.156963,0.013801,0.02607,-0.735374,0.85637,0.106063
1515639775,0.137714,0.002075,0.037163,-0.799439,0.961292,0.107523
1515639775,0.080855,0.001331,0.039042,-0.864622,1.071496,0.117529
1515639775,0.005935,0.011146,0.019993,-0.917044,1.18813,0.133959
1515639775,-0.062088,0.023938,-0.008679,-0.945996,1.309141,0.160017
1515639775,-0.113122,0.032204,-0.032813,-0.953557,1.428159,0.183946
1515639775,-0.14449,0.03098,-0.050768,-0.932919,1.503754,0.197052
1515639775,-0.159284,0.022604,-0.060746,-0.903246,1.528401,0.187569
1515639775,-0.163917,0.015099,-0.067951,-0.900027,1.525308,0.152378
1515639775,-0.165479,0.011731,-0.074646,-0.937251,1.506035,0.120304
1515639775,-0.164459,0.020219,-0.078882,-1.011703,1.469509,0.094537
1515639775,-0.16706,0.028213,-0.076173,-1.086822,1.391513,0.062204
1515639775,-0.174838,0.027925,-0.07004,-1.117108,1.207492,0.002818
1515639775,-0.181682,0.00699,-0.075741,-1.053977,0.866648,-0.072079
1515639775,-0.173695,-0.024723,-0.087129,-0.925395,0.496476,-0.179044
1515639775,-0.127245,-0.046003,-0.08068,-0.806577,0.247629,-0.350557
1515639775,-0.045482,-0.040214,-0.072938,-0.75175,0.201696,-0.592714
1515639775,0.055782,-0.008759,-0.058453,-0.745677,0.33414,-0.830979
1515639775,0.166866,0.011639,-0.016167,-0.738111,0.539637,-0.921833
1515639775,0.265,0.012146,0.056593,-0.72893,0.697928,-0.829516
1515639775,0.347544,0.096531,0.139029,-0.662569,0.696765,-0.616274
1515639775,0.391036,0.267215,0.199481,-0.511185,0.419352,-0.300693
1515639775,0.385168,0.399881,0.212889,-0.380943,-0.098591,0.045897
1515639775,0.334753,0.427512,0.189291,-0.393282,-0.570447,0.3489
1515639775,0.21805,0.382476,0.160609,-0.528252,-0.743998,0.568816
1515639775,0.08866,0.350396,0.152089,-0.614361,-0.674544,0.676728
1515639775,0.004648,0.329984,0.168912,-0.552107,-0.482837,0.709509
1515639775,-0.053207,0.286683,0.207815,-0.444691,-0.210085,0.75756
1515639775,-0.087542,0.219455,0.216543,-0.346041,-0.024575,0.80206
1515639775,-0.084256,0.139137,0.20019,-0.313024,0.205287,0.811521
1515639775,-0.048369,0.044199,0.216161,-0.351949,0.469916,0.790177
1515639775,-0.01827,-0.048565,0.223883,-0.416228,0.594109,0.736279
1515639775,-0.006966,-0.106728,0.19785,-0.502715,0.584198,0.666904
1515639775,-0.008425,-0.117116,0.144897,-0.593371,0.562585,0.581483
1515639775,-0.018122,-0.111734,0.086892,-0.647043,0.583731,0.499454
1515639775,-0.035357,-0.095226,0.045111,-0.62811,0.611658,0.434552
1515639775,-0.043586,-0.093497,0.022443,-0.547107,0.629291,0.366433
1515639775,-0.04824,-0.115851,0.006454,-0.454917,0.59591,0.308772
1515639775,-0.070048,-0.147417,-0.014599,-0.381055,0.470929,0.270993
1515639775,-0.095932,-0.159419,-0.031058,-0.337737,0.301093,0.24155
1515639775,-0.102351,-0.155908,-0.027904,-0.316595,0.104527,0.217318
1515639775,-0.094567,-0.164239,-0.007536,-0.299375,-0.126173,0.230261
1515639775,-0.070843,-0.186737,0.014476,-0.274188,-0.404783,0.285657
1515639775,-0.017189,-0.191465,0.036549,-0.242606,-0.681233,0.347465
1515639775,0.062402,-0.18049,0.0543,-0.244013,-0.862176,0.411768
1515639775,0.144216,-0.163779,0.061775,-0.261137,-0.965592,0.479571
1515639775,0.207949,-0.129127,0.056838,-0.266938,-1.025303,0.534765
1515639775,0.255315,-0.086114,0.049848,-0.26165,-1.017911,0.57211
1515639775,0.297456,-0.045635,0.037197,-0.261651,-0.907359,0.593875
1515639775,0.334204,-0.011763,0.024543,-0.276794,-0.67029,0.587352
1515639775,0.355534,0.016098,0.022594,-0.290276,-0.384282,0.582096
1515639775,0.364722,0.036982,0.034831,-0.292438,-0.162053,0.596849
1515639775,0.357798,0.050055,0.067349,-0.323588,-0.033659,0.644257
1515639775,0.335707,0.056928,0.128023,-0.39125,0.112626,0.678923
1515639775,0.290399,0.062416,0.20014,-0.489079,0.282243,0.668896
1515639775,0.219969,0.064405,0.224521,-0.594938,0.397629,0.635194
1515639775,0.154328,0.062532,0.195658,-0.681333,0.489722,0.605672
1515639775,0.113474,0.058257,0.158473,-0.727034,0.572489,0.572936
1515639775,0.083809,0.04537,0.124255,-0.747145,0.659698,0.519973
1515639775,0.053846,0.018947,0.109864,-0.739717,0.770508,0.442595
1515639775,0.022253,-0.010396,0.087546,-0.724689,0.868627,0.356644
1515639775,0.011517,-0.023785,0.062624,-0.707332,0.947612,0.277017
1515639775,0.023214,-0.024383,0.065528,-0.669125,0.971357,0.219563
1515639775,0.039844,-0.026441,0.058151,-0.638219,0.977982,0.186553
1515639775,0.05988,-0.026171,0.051144,-0.639462,0.995026,0.17063
1515639775,0.069743,-0.021122,0.063915,-0.655376,0.983256,0.165247
1515639775,0.058482,-0.029154,0.059668,-0.681608,0.93418,0.168236
1515639775,0.044519,-0.057171,0.044608,-0.715481,0.902046,0.181948
1515639775,0.027807,-0.090937,0.042982,-0.741067,0.896555,0.193641
1515639775,0.004515,-0.121776,0.044224,-0.726177,0.904068,0.201141
1515639776,-0.017662,-0.150055,0.041176,-0.694285,0.921245,0.210819
1515639776,-0.035248,-0.175388,0.03137,-0.658069,0.933145,0.214083
1515639776,-0.045815,-0.192772,0.030083,-0.630338,0.937589,0.200255
1515639776,-0.042866,-0.198137,0.036215,-0.606754,0.928229,0.167181
1515639776,-0.027185,-0.195263,0.041466,-0.59288,0.927361,0.116013
1515639776,-0.005564,-0.190667,0.03918,-0.586526,0.930696,0.065922
1515639776,0.016752,-0.191091,0.040167,-0.56129,0.970291,0.020252
1515639776,0.035037,-0.186267,0.033591,-0.511243,0.98558,-0.029768
1515639776,0.047964,-0.180191,0.02361,-0.478342,1.006082,-0.077644
1515639776,0.062153,-0.190134,0.027344,-0.460683,1.05625,-0.112613
1515639776,0.080891,-0.204529,0.028726,-0.432346,1.107516,-0.137979
1515639776,0.105664,-0.222451,0.017671,-0.402887,1.153461,-0.16017
1515639776,0.129343,-0.245033,0.034443,-0.360589,1.198388,-0.168498
1515639776,0.128215,-0.256522,0.064999,-0.279867,1.248796,-0.152267
1515639776,0.102066,-0.262257,0.04595,-0.190475,1.28651,-0.143544
1515639776,0.074668,-0.265964,0.018915,-0.101052,1.320029,-0.157224
1515639776,0.048212,-0.271378,0.013775,-0.005431,1.374859,-0.177214
1515639776,0.023195,-0.257426,0.058604,0.096199,1.471184,-0.191705
1515639776,-0.007697,-0.222217,0.103846,0.205528,1.545214,-0.202016
1515639776,-0.024103,-0.189315,0.109469,0.283208,1.57761,-0.217837
1515639776,-0.01438,-0.179692,0.082111,0.322738,1.577851,-0.224213
1515639776,0.016831,-0.179643,0.056675,0.386947,1.567567,-0.223163
1515639776,0.050437,-0.182351,0.061548,0.480918,1.575464,-0.184708
1515639776,0.071449,-0.191501,0.089926,0.590725,1.60463,-0.109917
1515639776,0.069524,-0.194902,0.11112,0.701658,1.628478,-0.027681
1515639776,0.05006,-0.191931,0.116424,0.819209,1.631103,0.053409
1515639776,0.01639,-0.177864,0.136698,0.900604,1.61647,0.147204
1515639776,-0.044613,-0.114179,0.183347,0.928475,1.502625,0.242708
1515639776,-0.136035,0.032098,0.266009,0.897649,1.380004,0.307231
1515639776,-0.298793,0.307747,0.398445,0.791458,1.421931,0.310549
1515639776,-0.618751,0.762671,0.554426,0.493623,1.487891,0.013238
1515639776,-1.13009,1.435937,0.584687,-0.295879,0.898705,-0.570512
1515639776,-1.699758,1.79743,0.504693,-0.874781,-0.43921,-0.59641
1515639776,-1.710995,1.33647,0.60999,-0.771575,-1.367531,-0.371945
1515639776,-0.75364,0.463281,0.630985,-0.580639,-1.112395,-0.315395
1515639776,0.150293,-0.11892,0.392567,-0.235822,-0.101968,-0.441239
1515639776,0.48024,-0.304022,-0.000104,0.204631,0.8598,-0.438237
1515639776,0.604486,-0.393538,-0.323182,0.46877,1.501202,-0.294816
1515639776,0.686989,-0.45858,-0.40879,0.51488,1.603131,-0.104625
1515639776,0.753066,-0.469493,-0.352294,0.373319,1.336072,0.064809
1515639776,0.734679,-0.473736,-0.278083,0.291193,1.002292,0.26172
1515639776,0.570285,-0.457705,-0.209368,0.360949,0.870429,0.43606
1515639776,0.374494,-0.338241,-0.177679,0.455356,0.94421,0.498233
1515639776,0.210369,-0.139024,-0.185102,0.451844,1.083585,0.465745
1515639776,0.062824,0.09081,-0.194795,0.484808,1.096687,0.398651
1515639776,-0.069152,0.285662,-0.165064,0.60417,1.128226,0.391371
1515639776,-0.152156,0.384076,-0.088959,0.631199,1.208013,0.448206
1515639776,-0.123331,0.389156,-0.030229,0.554045,1.226874,0.373617
1515639776,-0.01399,0.302021,-0.022725,0.462672,1.273579,0.179736
1515639776,0.033554,0.15555,-0.048794,0.397946,1.439401,0.049242
1515639776,0.00368,0.033757,-0.068954,0.337584,1.599767,-0.007711
1515639776,-0.080323,-0.029208,-0.085749,0.273672,1.581247,0.028433
1515639776,-0.189685,-0.058174,-0.081821,0.207761,1.440351,0.090735
1515639776,-0.260786,-0.071742,-0.037339,0.175883,1.31561,0.147786
1515639776,-0.242523,-0.068618,-0.009113,0.19117,1.177236,0.241053
1515639776,-0.149765,-0.061168,-0.013878,0.19991,1.052654,0.332239
1515639776,-0.054477,-0.067783,-0.01793,0.208069,0.877072,0.401899
1515639776,-0.00202,-0.094625,-0.025063,0.229509,0.653744,0.454316
1515639776,0.022994,-0.112733,-0.041136,0.250946,0.429415,0.481144
1515639776,0.017057,-0.107991,-0.056759,0.275345,0.229602,0.494216
1515639776,-0.017513,-0.093625,-0.061377,0.294722,0.106315,0.509722
1515639776,-0.057596,-0.076831,-0.059314,0.289751,0.068,0.507431
1515639776,-0.106162,-0.064267,-0.062886,0.259585,0.092334,0.486193
1515639776,-0.164196,-0.072031,-0.066494,0.245382,0.122149,0.438336
1515639776,-0.214067,-0.09072,-0.067263,0.238656,0.15098,0.369154
1515639776,-0.242807,-0.109327,-0.065912,0.2408,0.14587,0.280649
1515639776,-0.249191,-0.117247,-0.060157,0.252703,0.125946,0.185694
1515639776,-0.242703,-0.10632,-0.05062,0.258048,0.121907,0.106794
1515639776,-0.227792,-0.08697,-0.041921,0.255855,0.1252,0.055634
1515639776,-0.199261,-0.070623,-0.035727,0.246083,0.139055,0.016239
1515639776,-0.160415,-0.050358,-0.032939,0.239605,0.144405,-0.014658
1515639776,-0.115946,-0.020577,-0.032309,0.226647,0.157148,-0.039133
1515639776,-0.070739,0.010063,-0.025465,0.205034,0.181508,-0.049706
1515639776,-0.025497,0.040445,-0.015073,0.163955,0.230189,-0.048464
1515639776,0.017605,0.067691,-0.001859,0.101237,0.307414,-0.026863
1515639776,0.057801,0.082695,0.021174,0.020248,0.3962,0.009702
1515639776,0.088751,0.087721,0.04685,-0.049904,0.470127,0.06007
1515639776,0.104924,0.084477,0.065581,-0.095064,0.501644,0.11561
1515639776,0.105808,0.075882,0.077403,-0.130406,0.513001,0.177471
1515639776,0.098634,0.068163,0.088377,-0.159319,0.522292,0.232934
1515639776,0.081262,0.06033,0.095008,-0.186194,0.541177,0.278838
1515639776,0.054184,0.051967,0.097607,-0.204478,0.554803,0.31406
1515639776,0.01988,0.047099,0.094729,-0.21206,0.566408,0.33649
1515639776,-0.019018,0.03769,0.08837,-0.213172,0.571676,0.354633
1515639776,-0.054506,0.018108,0.076382,-0.206933,0.589771,0.363237
1515639776,-0.080882,0.005558,0.059585,-0.198567,0.608961,0.369719
1515639776,-0.105014,0.001707,0.037904,-0.183492,0.597337,0.37501
1515639776,-0.128376,-0.00465,0.015078,-0.15856,0.561302,0.383406
1515639776,-0.149812,-0.013211,-0.001964,-0.131337,0.509334,0.389607
1515639776,-0.171009,-0.023245,-0.020263,-0.11673,0.436031,0.390384
1515639776,-0.18897,-0.035991,-0.036512,-0.112798,0.361614,0.389021
1515639776,-0.203088,-0.053,-0.047105,-0.120674,0.292449,0.384474
1515639776,-0.210439,-0.074085,-0.052221,-0.134198,0.254125,0.367257
1515639776,-0.211359,-0.100716,-0.048434,-0.145,0.264754,0.341708
1515639776,-0.209823,-0.11863,-0.042958,-0.135962,0.322312,0.306763
1515639776,-0.205785,-0.125053,-0.0448,-0.111859,0.369319,0.276049
1515639776,-0.201718,-0.123739,-0.044719,-0.083468,0.415258,0.254925
1515639776,-0.19395,-0.103503,-0.032573,-0.078898,0.493998,0.247781
1515639776,-0.173374,-0.075541,-0.019465,-0.105058,0.547012,0.252246
1515639777,-0.147995,-0.053728,-0.007345,-0.149939,0.547799,0.260756
1515639777,-0.122615,-0.035446,0.009508,-0.213884,0.531449,0.274519
1515639777,-0.101286,-0.016488,0.030621,-0.279074,0.533158,0.290483
1515639777,-0.090236,-0.001414,0.049554,-0.331252,0.515795,0.31171
1515639777,-0.088782,0.002188,0.061072,-0.376849,0.481452,0.338206
1515639777,-0.095753,0.003815,0.063884,-0.409443,0.42907,0.376359
1515639777,-0.110712,0.00596,0.059607,-0.432504,0.386252,0.438006
1515639777,-0.127426,0.012532,0.053436,-0.455816,0.369996,0.51362
1515639777,-0.141399,0.018419,0.049372,-0.488833,0.363239,0.598865
1515639777,-0.156294,0.021485,0.042476,-0.522786,0.342659,0.678722
1515639777,-0.173222,0.004775,0.036679,-0.568154,0.286936,0.75097
1515639777,-0.185577,-0.037188,0.025333,-0.640003,0.20766,0.825243
1515639777,-0.204692,-0.078665,-0.00173,-0.73607,0.091072,0.883367
1515639777,-0.228452,-0.107993,-0.046444,-0.851867,-0.085154,0.923116
1515639777,-0.258342,-0.130688,-0.099185,-0.947982,-0.310076,0.908305
1515639777,-0.278832,-0.138824,-0.140128,-0.946469,-0.580949,0.77396
1515639777,-0.299483,-0.074542,-0.14337,-0.79859,-0.857027,0.48828
1515639777,-0.329631,0.078011,-0.085975,-0.461741,-1.016739,0.014463
1515639777,-0.297943,0.201941,0.043662,-0.052176,-0.86296,-0.642491
1515639777,-0.124136,0.129547,0.19248,0.018193,-0.546513,-1.200876
1515639777,0.102565,-0.054149,0.245041,-0.446094,-0.497779,-1.355482
1515639777,0.278383,-0.14073,0.205882,-1.076777,-0.792075,-1.199183
1515639777,0.346765,-0.042835,0.125938,-1.4413,-1.205042,-1.029374
1515639777,0.260764,0.111895,0.047599,-1.509412,-1.439939,-0.78835
1515639777,0.046099,0.187362,-0.010171,-1.353435,-1.532241,-0.492281
1515639777,-0.128765,0.218262,-0.031334,-1.088907,-1.482946,-0.457843
1515639777,-0.184389,0.177152,-0.018561,-0.957678,-1.254135,-0.669011
1515639777,-0.221384,0.129177,-0.004885,-1.056982,-0.942666,-0.865032
1515639777,-0.213269,0.177115,0.027862,-1.219706,-0.690574,-0.829984
1515639777,-0.091341,0.284327,0.078836,-1.254564,-0.612531,-0.6282
1515639777,0.082172,0.369023,0.122579,-1.145463,-0.720942,-0.375922
1515639777,0.217612,0.373795,0.147757,-0.954042,-0.943724,-0.131528
1515639777,0.276781,0.298519,0.140521,-0.787096,-1.177251,0.103219
1515639777,0.250263,0.200643,0.117863,-0.659199,-1.243946,0.293839
1515639777,0.206844,0.132944,0.108633,-0.584675,-1.102302,0.388253
1515639777,0.180755,0.100903,0.093054,-0.575723,-0.92466,0.392168
1515639777,0.147802,0.084635,0.043556,-0.611168,-0.797212,0.376671
1515639777,0.124875,0.087731,-0.009008,-0.641331,-0.665396,0.323882
1515639777,0.121245,0.082374,-0.045686,-0.623053,-0.572546,0.224052
1515639777,0.129526,0.049151,-0.071906,-0.545175,-0.56546,0.108981
1515639777,0.131123,-0.00082,-0.096737,-0.437756,-0.629422,-0.015951
1515639777,0.117728,-0.063382,-0.110459,-0.335877,-0.780726,-0.099663
1515639777,0.089118,-0.11707,-0.110528,-0.242011,-0.986343,-0.171871
1515639777,0.05838,-0.153574,-0.10181,-0.198261,-1.091298,-0.206386
1515639777,0.059677,-0.172777,-0.091552,-0.205516,-1.007222,-0.25296
1515639777,0.080989,-0.184989,-0.085255,-0.244589,-0.839259,-0.323732
1515639777,0.092632,-0.198909,-0.079326,-0.292017,-0.692548,-0.423377
1515639777,0.100751,-0.196253,-0.068511,-0.346435,-0.595857,-0.524292
1515639777,0.116553,-0.177705,-0.049247,-0.414891,-0.485381,-0.646482
1515639777,0.11966,-0.145481,-0.022097,-0.487913,-0.34615,-0.795208
1515639777,0.101008,-0.121063,-0.003717,-0.53507,-0.228085,-0.919484
1515639777,0.089447,-0.106179,0.003831,-0.538135,-0.137507,-1.008672
1515639777,0.094003,-0.097715,0.002949,-0.484906,-0.010518,-1.06357
1515639777,0.104107,-0.092143,-0.008399,-0.392423,0.147423,-1.071421
1515639777,0.111604,-0.086001,-0.029057,-0.275301,0.301143,-1.032372
1515639777,0.119734,-0.080881,-0.049029,-0.152235,0.395262,-0.956245
1515639777,0.125873,-0.078099,-0.063241,-0.043053,0.379743,-0.868836
1515639777,0.12793,-0.084172,-0.058028,0.030959,0.24494,-0.794716
1515639777,0.122085,-0.097747,-0.031749,0.059699,0.040759,-0.726229
1515639777,0.120602,-0.102677,0.011546,0.054126,-0.151881,-0.672635
1515639777,0.116743,-0.08642,0.064357,0.044155,-0.223268,-0.638812
1515639777,0.120365,-0.06357,0.114435,0.049986,-0.162673,-0.614046
1515639777,0.125266,-0.036821,0.141889,0.059059,0.00323,-0.594189
1515639777,0.137607,-0.007463,0.140967,0.057625,0.149979,-0.593601
1515639777,0.147335,0.007722,0.113474,0.047216,0.231776,-0.580485
1515639777,0.167137,0.011863,0.087464,0.053609,0.234941,-0.552752
1515639777,0.19331,0.004231,0.079594,0.060131,0.226342,-0.496282
1515639777,0.217141,-0.017998,0.086876,0.062387,0.218699,-0.402497
1515639777,0.225174,-0.03948,0.093724,0.078769,0.187723,-0.298136
1515639777,0.214569,-0.058128,0.112018,0.096695,0.106816,-0.215299
1515639777,0.186956,-0.069321,0.122659,0.103023,0.008873,-0.154924
1515639777,0.145162,-0.07426,0.124927,0.10586,-0.060351,-0.104029
1515639777,0.112507,-0.090412,0.131914,0.092579,-0.122127,-0.09362
1515639777,0.111822,-0.110734,0.138291,0.086255,-0.131708,-0.105389
1515639777,0.109863,-0.116884,0.141775,0.109174,-0.072005,-0.115801
1515639777,0.094357,-0.110793,0.103448,0.125955,-0.041011,-0.141255
1515639777,0.088578,-0.109042,0.045,0.114089,-0.031422,-0.179601
1515639777,0.093977,-0.096822,0.030782,0.06183,0.066195,-0.214414
1515639777,0.087596,-0.05919,0.083131,-0.013576,0.236018,-0.25641
1515639777,0.061302,-0.03067,0.149041,-0.066762,0.317744,-0.320072
1515639777,0.024457,-0.022193,0.15049,-0.132151,0.227095,-0.37377
1515639777,0.023104,-0.027846,0.121117,-0.154952,0.044107,-0.400101
1515639777,0.066919,-0.040663,0.057103,-0.155232,-0.145216,-0.387
1515639777,0.132701,-0.075957,-0.028059,-0.136827,-0.167547,-0.341239
1515639777,0.188771,-0.12015,-0.063587,-0.078915,0.032585,-0.279641
1515639777,0.191836,-0.16377,-0.069347,0.009262,0.305262,-0.245457
1515639777,0.153283,-0.208922,-0.039562,0.11886,0.570704,-0.251804
1515639777,0.105865,-0.234543,0.014968,0.236567,0.770324,-0.286127
1515639777,0.072531,-0.22114,0.054939,0.329463,0.884704,-0.316545
1515639777,0.063643,-0.163878,0.066885,0.371321,0.865797,-0.314469
1515639777,0.067156,-0.101161,0.059222,0.371569,0.732811,-0.284081
1515639777,0.07604,-0.07316,0.043674,0.344162,0.586873,-0.246301
1515639777,0.081823,-0.08745,0.036557,0.327795,0.514368,-0.20289
1515639777,0.096397,-0.126653,0.023423,0.351145,0.531471,-0.182555
1515639777,0.114204,-0.153991,0.00689,0.415364,0.630703,-0.165069
1515639777,0.11304,-0.156794,0.009819,0.518901,0.753496,-0.120818
1515639777,0.094603,-0.141684,0.018568,0.662182,0.855229,-0.068104
1515639777,0.068994,-0.114876,0.036947,0.79204,0.909037,-0.018787
1515639777,0.035225,-0.083015,0.067885,0.87885,0.884951,0.03446
1515639778,0.002222,-0.054358,0.098935,0.929834,0.808588,0.072557
1515639778,-0.011282,-0.043965,0.123609,0.94009,0.743728,0.088288
1515639778,0.001168,-0.059373,0.132484,0.940481,0.704353,0.100923
1515639778,0.041555,-0.09017,0.131163,0.970611,0.685287,0.149905
1515639778,0.095118,-0.10181,0.111234,1.023558,0.62904,0.232858
1515639778,0.129854,-0.067707,0.095031,1.027767,0.529985,0.309219
1515639778,0.105984,0.047666,0.147636,1.023709,0.509674,0.345382
1515639778,-0.024379,0.278099,0.263006,1.001997,0.652143,0.306499
1515639778,-0.299354,0.697361,0.392798,0.575722,0.845191,-0.083112
1515639778,-0.783268,1.353368,0.519902,-0.514696,0.651,-0.686741
1515639778,-1.411491,1.742095,0.530778,-1.033702,-0.36538,-0.723047
1515639778,-1.623017,1.468929,0.502715,-0.707405,-0.940487,-0.466143
1515639778,-0.830396,0.678354,0.486459,-0.472557,-0.588237,-0.447561
1515639778,0.07023,0.018626,0.278043,-0.312579,0.418059,-0.626814
1515639778,0.450547,-0.227211,0.00372,-0.017486,1.272737,-0.663755
1515639778,0.594549,-0.370927,-0.230735,0.238146,1.474778,-0.473059
1515639778,0.664803,-0.431464,-0.368834,0.251863,1.176526,-0.224788
1515639778,0.724951,-0.402999,-0.370987,0.106432,0.760462,-0.01758
1515639778,0.730464,-0.346991,-0.270942,0.039714,0.382043,0.206878
1515639778,0.604633,-0.293161,-0.134161,0.179417,0.094066,0.459511
1515639778,0.406314,-0.218352,-0.039674,0.417012,0.064154,0.652463
1515639778,0.216015,-0.126599,-0.004317,0.576105,0.297838,0.711046
1515639778,0.024676,-0.028513,-0.031371,0.664116,0.583461,0.663194
1515639778,-0.146431,0.061756,-0.099283,0.678617,0.844323,0.564039
1515639778,-0.227488,0.136505,-0.115414,0.562869,1.094818,0.483967
1515639778,-0.20576,0.200628,-0.090768,0.477393,1.088223,0.361302
1515639778,-0.154363,0.19511,-0.093845,0.539921,0.804993,0.202417
1515639778,-0.128119,0.120864,-0.117475,0.595593,0.676986,0.04735
1515639778,-0.107531,0.027315,-0.137824,0.492763,0.806404,-0.070514
1515639778,-0.121109,-0.054235,-0.115934,0.272891,0.996739,-0.144478
1515639778,-0.153473,-0.071814,-0.0324,0.116536,1.032029,-0.157204
1515639778,-0.133203,-0.055878,0.052635,0.134324,0.96597,-0.059384
1515639778,-0.022406,-0.041252,0.063531,0.242302,0.858802,0.107611
1515639778,0.121508,-0.021416,-0.010284,0.29018,0.668381,0.25612
1515639778,0.202565,-0.011547,-0.098674,0.28532,0.405436,0.362736
1515639778,0.204576,-0.008492,-0.121026,0.311962,0.197014,0.424812
1515639778,0.159047,0.018816,-0.082149,0.354302,0.129173,0.434155
1515639778,0.102506,0.059613,-0.040253,0.356843,0.196236,0.414172
1515639778,0.048417,0.076146,-0.007218,0.311643,0.336452,0.371004
1515639778,0.010652,0.054071,0.009954,0.239497,0.499929,0.316187
1515639778,-0.013405,0.010516,0.009162,0.157741,0.662316,0.251769
1515639778,-0.032243,-0.023699,-0.008725,0.085707,0.814121,0.190513
1515639778,-0.057374,-0.046424,-0.028225,0.049255,0.93417,0.152599
1515639778,-0.08731,-0.056696,-0.033751,0.056206,0.987416,0.136824
1515639778,-0.110622,-0.042606,-0.02127,0.078982,0.952471,0.128166
1515639778,-0.118118,-0.026127,0.000911,0.090694,0.847275,0.122421
1515639778,-0.109913,-0.014716,0.025532,0.095221,0.712227,0.128278
1515639778,-0.092972,-0.00862,0.035496,0.123131,0.590049,0.139523
1515639778,-0.067403,-0.010197,0.026322,0.155039,0.496607,0.157287
1515639778,-0.039296,-0.017655,0.005388,0.180387,0.419068,0.183643
1515639778,-0.011676,-0.018502,-0.016219,0.207861,0.342592,0.212133
1515639778,0.013934,-0.010869,-0.032236,0.240544,0.279954,0.24601
1515639778,0.035559,-0.001648,-0.043511,0.266754,0.223664,0.279911
1515639778,0.050544,0.004346,-0.053963,0.268398,0.16618,0.309531
1515639778,0.054827,0.004513,-0.060797,0.253833,0.126708,0.327489
1515639778,0.050273,0.005351,-0.059648,0.221854,0.119067,0.331706
1515639778,0.038879,0.014222,-0.050017,0.183214,0.136919,0.333892
1515639778,0.025138,0.022487,-0.03579,0.147663,0.166484,0.335057
1515639778,0.017715,0.018901,-0.019049,0.128284,0.181271,0.330843
1515639778,0.0188,0.016703,-0.007037,0.127348,0.167472,0.322263
1515639778,0.021298,0.024854,0.003547,0.15014,0.13144,0.324262
1515639778,0.021921,0.040327,0.015818,0.177244,0.0922,0.343305
1515639778,0.020685,0.051729,0.018292,0.185138,0.051742,0.383657
1515639778,0.017047,0.051804,0.011258,0.180552,-0.022852,0.440925
1515639778,0.00799,0.036752,-0.002007,0.178517,-0.139969,0.49589
1515639778,0.003068,0.013208,-0.012176,0.186214,-0.269746,0.53162
1515639778,-0.002133,-0.003495,-0.018837,0.191926,-0.415476,0.561955
1515639778,-0.016049,-0.012316,-0.027644,0.180558,-0.56342,0.583741
1515639778,-0.036992,-0.015191,-0.032113,0.14838,-0.660374,0.581204
1515639778,-0.061957,-0.009948,-0.027033,0.095217,-0.688275,0.558681
1515639778,-0.092103,0.000816,-0.020146,0.043652,-0.661897,0.520384
1515639778,-0.121825,0.005247,-0.009915,-0.008435,-0.582342,0.478034
1515639778,-0.141173,-0.003339,-0.00192,-0.04363,-0.482454,0.422983
1515639778,-0.146245,-0.01783,-0.00243,-0.07048,-0.362275,0.354159
1515639778,-0.136117,-0.033916,-0.005807,-0.104687,-0.254904,0.284213
1515639778,-0.116686,-0.050266,-0.01508,-0.133292,-0.174077,0.212032
1515639778,-0.093709,-0.059407,-0.028256,-0.142232,-0.136777,0.15461
1515639778,-0.074845,-0.062164,-0.040958,-0.134808,-0.132431,0.129042
1515639778,-0.057158,-0.062168,-0.047121,-0.114398,-0.14399,0.119411
1515639778,-0.043047,-0.059415,-0.053948,-0.096249,-0.141791,0.131154
1515639778,-0.034361,-0.051533,-0.054251,-0.094366,-0.115222,0.144054
1515639778,-0.030935,-0.041833,-0.051468,-0.094678,-0.082302,0.163375
1515639778,-0.025314,-0.035615,-0.047306,-0.105668,-0.05049,0.17629
1515639778,-0.020566,-0.02826,-0.04099,-0.129498,-0.017656,0.174277
1515639778,-0.018825,-0.023569,-0.03748,-0.161093,0.043877,0.159584
1515639778,-0.008746,-0.010669,-0.036336,-0.211205,0.14149,0.139702
1515639778,0.009484,0.015275,-0.032853,-0.259482,0.269928,0.124203
1515639778,0.024818,0.038488,-0.029395,-0.304441,0.387698,0.128916
1515639778,0.039439,0.052557,-0.024647,-0.347914,0.46396,0.154787
1515639778,0.043715,0.056332,-0.017638,-0.39831,0.483798,0.192157
1515639778,0.033575,0.039608,-0.008848,-0.444951,0.447293,0.227169
1515639778,0.009707,0.019092,-0.005046,-0.486012,0.385349,0.239694
1515639778,-0.023687,0.004608,-0.009298,-0.519073,0.378782,0.238586
1515639778,-0.051448,0.004902,-0.016171,-0.541059,0.441405,0.233494
1515639778,-0.069466,0.015845,-0.025353,-0.558186,0.554034,0.233938
1515639778,-0.079113,0.029169,-0.028458,-0.576268,0.655978,0.255661
1515639778,-0.077764,0.032199,-0.024908,-0.600214,0.702556,0.289951
1515639778,-0.067033,0.029264,-0.018399,-0.634366,0.700148,0.32617
1515639778,-0.054866,0.025845,-0.006167,-0.666034,0.662644,0.37078
1515639779,-0.053096,0.015664,-0.001926,-0.698366,0.584687,0.43335
1515639779,-0.06493,-0.005954,-0.007855,-0.739221,0.504528,0.506568
1515639779,-0.095635,-0.018238,-0.017262,-0.792072,0.449795,0.590542
1515639779,-0.144504,-0.028497,-0.032483,-0.850592,0.42802,0.666118
1515639779,-0.201274,-0.031854,-0.049318,-0.900512,0.399962,0.721419
1515639779,-0.259457,-0.038904,-0.060948,-0.938516,0.354971,0.769194
1515639779,-0.314404,-0.053216,-0.073702,-0.977297,0.280207,0.816852
1515639779,-0.367394,-0.077828,-0.096858,-0.998616,0.167279,0.851569
1515639779,-0.409437,-0.118562,-0.126596,-1.01534,0.02039,0.864829
1515639779,-0.439183,-0.170339,-0.164531,-1.022077,-0.166741,0.829961
1515639779,-0.456271,-0.222328,-0.20196,-0.954861,-0.380936,0.717191
1515639779,-0.457898,-0.268507,-0.20534,-0.769436,-0.560135,0.48309
1515639779,-0.442859,-0.249922,-0.147849,-0.449805,-0.594599,0.076934
1515639779,-0.381242,-0.1502,-0.027349,-0.049729,-0.447551,-0.449992
1515639779,-0.201092,-0.065576,0.153476,0.13344,-0.078599,-0.90151
1515639779,0.104712,-0.023039,0.325213,-0.064841,-0.024095,-1.052768
1515639779,0.394924,0.018946,0.316339,-0.282666,-0.46612,-0.827568
1515639779,0.528065,0.016945,0.101253,-0.252472,-1.017901,-0.348969
1515639779,0.476381,-0.059109,-0.129551,-0.045555,-1.393203,0.133622
1515639779,0.334563,-0.130758,-0.21039,0.147373,-1.444641,0.326467
1515639779,0.151397,-0.0815,-0.146044,0.237688,-1.172995,0.346785
1515639779,-0.038946,0.037873,-0.029372,0.224379,-0.687,0.317812
1515639779,-0.141402,0.152995,0.071006,0.058272,-0.203843,0.225865
