time,accel x,accel y,accel z,gyro x,gyro y,gyro z
1515650841859,0.206587,-0.001744,0.087414,0.087682,-0.990137,1.201239
1515650841869,0.226651,-0.012753,0.241952,-0.138837,-1.114558,1.093489
1515650841879,0.184819,-0.097756,0.389292,-0.368079,-0.972072,0.957663
1515650841889,0.097786,-0.144172,0.464586,-0.445335,-0.572398,0.687444
1515650841899,0.061677,-0.107815,0.457003,-0.277169,0.020687,0.452225
1515650841909,0.099744,-0.156243,0.396338,0.007098,0.369936,0.413209
1515650841920,0.124992,-0.173708,0.283544,0.235997,0.370435,0.450657
1515650841930,0.190177,-0.094041,0.180748,0.26513,0.135924,0.443356
1515650841940,0.226025,-0.007882,0.089116,0.042058,-0.576913,0.382225
1515650841950,0.243231,-0.005522,-0.086442,-0.04297,-1.412791,0.36976
1515650841960,0.274951,-0.016191,-0.116191,0.131896,-1.886215,0.448593
1515650841970,0.24761,-0.009655,0.018109,0.156827,-1.644786,0.605088
1515650841980,0.22016,-0.001071,0.269527,0.129258,-1.153562,0.697453
1515650841990,0.21789,0.033893,0.336098,0.058704,-0.877451,0.716625
1515650842000,0.199298,-0.001861,0.380692,-0.145078,-0.724184,0.797357
1515650842010,0.201296,-0.045622,0.394822,-0.293888,-0.506723,0.929008
1515650842020,0.181701,-0.036946,0.446203,-0.268771,0.112423,0.967619
1515650842030,0.1557,-0.018318,0.507409,-0.032587,1.106726,0.884243
1515650842040,0.197307,0.044875,0.489753,0.39789,2.399872,0.717475
1515650842051,0.259128,0.167298,0.454134,0.682122,3.681517,0.406181
1515650842061,0.320913,0.310616,0.349055,0.528661,4.495389,-0.038217
1515650842071,0.448175,0.404476,0.281267,0.146973,4.996536,-0.643495
1515650842081,0.612413,0.457659,0.267228,-0.290002,5.082835,-1.452954
1515650842091,0.544996,0.338942,0.268605,-0.52332,4.689077,-1.481347
1515650842101,0.011607,-0.161847,0.148991,-0.801675,3.783477,0.33874
1515650842111,-0.182681,-0.587417,0.086704,-0.785434,2.843799,1.865146
1515650842121,0.011503,-0.36156,0.173313,-0.621389,2.44544,1.709106
1515650842131,-0.028403,0.099099,0.348042,-0.978177,2.238377,1.122756
1515650842141,-0.102919,0.388913,0.710483,-1.590914,2.288541,0.578805
1515650842151,0.024349,0.3728,0.794165,-2.009773,2.385131,0.294414
1515650842161,0.196533,0.313546,0.715191,-2.172805,2.771136,0.135585
1515650842171,0.25579,0.388429,0.603466,-2.024555,3.277976,-0.004446
1515650842182,0.145814,0.33619,0.51219,-1.679924,4.103676,-0.158521
1515650842192,0.12905,0.275315,0.482233,-1.216783,5.012981,-0.249158
1515650842202,0.1788,0.245465,0.389227,-0.863677,5.385693,-0.225514
1515650842212,0.177041,0.256077,0.356244,-0.79603,5.462004,-0.233371
1515650842222,0.128049,0.295661,0.405034,-0.964197,5.30464,-0.360543
1515650842232,0.04176,0.296368,0.378672,-1.201888,4.953561,-0.570436
1515650842242,-0.01462,0.299613,0.359257,-1.388167,4.840055,-0.694384
1515650842252,-0.026427,0.292695,0.391138,-1.438496,5.065306,-0.776639
1515650842262,-0.058877,0.285524,0.338007,-1.316528,5.478785,-0.902562
1515650842272,-0.075714,0.309327,0.216444,-1.103435,5.895726,-1.02354
1515650842282,-0.02183,0.321811,0.04754,-0.867564,6.06891,-1.23504
1515650842292,0.034186,0.385331,-0.212169,-0.934457,5.609078,-1.663268
1515650842302,0.038108,0.384638,-0.441647,-1.529488,4.379866,-2.169401
1515650842313,0.184299,0.249535,-0.636942,-2.333444,2.771992,-2.49378
1515650842323,0.48543,0.039677,-0.830029,-2.947867,1.277145,-2.381478
1515650842333,0.731567,-0.23894,-1.002547,-3.273649,0.112392,-1.902572
1515650842343,0.836774,-0.407769,-1.081622,-3.415618,-0.78248,-1.291366
1515650842353,0.762778,-0.458654,-1.066742,-3.433359,-1.315848,-0.695016
1515650842363,0.57195,-0.43133,-0.994311,-3.315295,-1.470668,-0.301459
1515650842373,0.373582,-0.323478,-0.878821,-3.130421,-1.20589,-0.219327
1515650842383,0.2365,-0.228916,-0.759523,-2.973839,-0.635792,-0.36374
1515650842393,0.218115,-0.181962,-0.71708,-2.796233,0.002262,-0.587315
1515650842403,0.293206,-0.205968,-0.793829,-2.571787,0.55531,-0.709581
1515650842413,0.366706,-0.299681,-0.930739,-2.38058,0.823602,-0.684045
1515650842423,0.413605,-0.3543,-1.075446,-2.246672,0.656554,-0.621432
1515650842433,0.408839,-0.344224,-1.125337,-2.060648,0.401931,-0.583483
1515650842443,0.37155,-0.333589,-1.047398,-1.818959,0.367213,-0.566326
1515650842454,0.296898,-0.353773,-0.964176,-1.568069,0.486602,-0.508838
1515650842464,0.185485,-0.382609,-0.861667,-1.353562,0.755226,-0.535708
1515650842474,0.19055,-0.329496,-0.877904,-1.21245,0.645696,-0.830773
1515650842484,0.15676,-0.302437,-1.015776,-1.112106,0.292544,-1.066652
1515650842494,0.072125,-0.330552,-1.065758,-0.997076,0.015084,-1.218365
1515650842504,0.112187,-0.434024,-1.197251,-1.073416,-0.924234,-1.322535
1515650842514,0.173182,-0.50781,-1.252754,-1.212084,-1.918797,-1.128564
1515650842524,0.213161,-0.501098,-1.259105,-0.957565,-2.467191,-1.007282
1515650842534,0.26335,-0.500701,-1.180173,-0.563279,-2.487184,-0.843495
1515650842544,0.201897,-0.421748,-0.989715,-0.013128,-1.617779,-0.829854
1515650842554,0.112216,-0.274548,-0.794751,0.60487,-0.767107,-0.885861
1515650842564,0.071905,-0.451376,-0.851065,1.034989,-0.221529,-0.675969
1515650842574,0.169724,-0.56762,-0.874087,1.428075,0.309507,-0.365564
1515650842585,0.136146,-0.380007,-0.848108,1.784477,0.630727,-0.326927
1515650842595,0.105661,-0.263769,-0.820874,2.025814,0.752513,-0.325978
1515650842605,0.180389,-0.270559,-0.805945,2.236786,0.724595,-0.187016
1515650842615,0.158292,-0.29874,-0.729401,2.423271,0.750073,-0.027737
1515650842625,0.131237,-0.229927,-0.609271,2.541149,0.652217,0.114913
1515650842635,0.111216,-0.179449,-0.583347,2.635164,0.324002,0.245148
1515650842645,0.131424,-0.140734,-0.607055,2.716332,0.055721,0.380696
1515650842655,0.101987,-0.084555,-0.47899,2.827881,-0.060132,0.476428
1515650842665,0.077451,-0.011751,-0.393041,2.933996,-0.123152,0.501671
1515650842675,0.081781,0.045132,-0.305705,3.014382,-0.058508,0.477763
1515650842685,0.079817,0.086147,-0.206896,3.099926,0.068308,0.450555
1515650842695,0.075821,0.111236,-0.120144,3.183086,0.317058,0.4627
1515650842705,0.057363,0.1109,-0.076615,3.282187,0.549594,0.51322
1515650842716,0.020545,0.126863,-0.032927,3.370692,0.785223,0.581925
1515650842726,-0.022621,0.171007,0.057562,3.395302,1.156869,0.621915
1515650842736,-0.082849,0.204367,0.167266,3.374127,1.625907,0.655574
1515650842746,-0.122003,0.238107,0.201693,3.346668,2.056611,0.638074
1515650842756,-0.170223,0.281857,0.194899,3.317245,2.4156,0.605729
1515650842766,-0.214744,0.304837,0.208106,3.279354,2.772346,0.588366
1515650842776,-0.23986,0.339083,0.237969,3.215995,3.144041,0.565757
1515650842786,-0.269578,0.381662,0.254997,3.168612,3.479384,0.537787
1515650842796,-0.293555,0.421894,0.263825,3.094759,3.803992,0.498202
1515650842806,-0.293755,0.470541,0.280495,2.996919,3.962167,0.517635
1515650842816,-0.306889,0.487595,0.273048,2.898745,3.81008,0.663407
1515650842826,-0.357002,0.550328,0.298862,2.689779,3.440399,0.762962
1515650842836,-0.480836,0.720246,0.361822,2.281877,2.919125,0.63407
1515650842846,-0.612781,0.889414,0.43623,1.750927,2.435842,0.332736
1515650842857,-0.714846,0.962961,0.506897,1.181342,2.15765,-0.082902
1515650842867,-0.794748,0.96496,0.50552,0.721425,2.11163,-0.583622
1515650842877,-0.810503,0.944725,0.44725,0.518479,2.304183,-1.075064
1515650842887,-0.736352,0.923658,0.411625,0.532186,2.764817,-1.483442
1515650842897,-0.558235,0.893251,0.369238,0.685847,3.211066,-1.716282
1515650842907,-0.296389,0.931295,0.329727,0.80176,3.498715,-1.750226
1515650842917,-0.052664,1.010994,0.330687,0.676676,3.522724,-1.698487
1515650842927,0.086934,1.065014,0.319843,0.202555,3.250119,-1.673706
1515650842937,0.116412,1.074757,0.253644,-0.56124,2.663238,-1.750832
1515650842947,0.044411,1.026204,0.103108,-1.377619,1.888079,-1.917158
1515650842957,-0.030592,0.928964,-0.080727,-1.973582,1.11043,-2.096163
1515650842967,-0.066678,0.834031,-0.261336,-2.239264,0.478682,-2.330131
1515650842977,-0.071168,0.797724,-0.39584,-2.23298,0.008671,-2.60709
1515650842988,-0.048696,0.727542,-0.444985,-2.02449,-0.356617,-2.707857
1515650842998,0.043108,0.70799,-0.413578,-1.681103,-0.378134,-2.698622
1515650843008,0.091391,0.66678,-0.332373,-1.198633,-0.045617,-2.701098
1515650843018,0.149404,0.603065,-0.203211,-0.622427,0.550459,-2.646668
1515650843028,0.21081,0.528348,-0.079591,-0.002919,1.219141,-2.516726
1515650843038,0.239426,0.468491,-0.013698,0.505634,1.745137,-2.414951
1515650843048,0.212996,0.420699,0.023834,0.784538,2.123222,-2.43903
1515650843058,0.173557,0.349038,0.044193,0.791336,2.392542,-2.515182
1515650843068,0.171091,0.27725,0.033855,0.586468,2.540187,-2.596681
1515650843078,0.171777,0.176629,0.009665,0.327261,2.352066,-2.626295
1515650843088,0.1855,0.057752,-0.009396,0.085817,1.815197,-2.535998
1515650843098,0.181787,-0.085414,-0.011147,-0.126609,1.09625,-2.440258
1515650843108,0.13353,-0.209027,-0.024865,-0.313354,0.269065,-2.323147
1515650843119,0.146854,-0.316649,-0.029177,-0.527658,-0.54064,-2.075719
1515650843129,0.148698,-0.414859,-0.02166,-0.786925,-1.139751,-1.761117
1515650843139,0.141776,-0.415139,-0.006434,-1.098776,-1.45148,-1.527773
1515650843149,0.08845,-0.34607,0.002833,-1.410865,-1.669451,-1.404486
1515650843159,0.014444,-0.310516,-0.043809,-1.663911,-1.762601,-1.354184
1515650843169,-0.038124,-0.281192,-0.103176,-1.79312,-1.797158,-1.377072
1515650843179,-0.085379,-0.245308,-0.160117,-1.812197,-1.802187,-1.453843
1515650843189,-0.081471,-0.220902,-0.20548,-1.770927,-1.787628,-1.555439
1515650843199,-0.064196,-0.218292,-0.235597,-1.733919,-1.762374,-1.655963
1515650843209,-0.038185,-0.219252,-0.2317,-1.731897,-1.732774,-1.789433
1515650843219,0.020308,-0.186527,-0.214398,-1.821864,-1.799687,-1.96081
1515650843229,0.080665,-0.185928,-0.211408,-2.011196,-1.972023,-2.106018
1515650843239,0.161246,-0.206526,-0.220537,-2.287327,-2.182312,-2.212383
1515650843250,0.223224,-0.198756,-0.205468,-2.592192,-2.335988,-2.301618
1515650843260,0.267955,-0.204707,-0.207571,-2.819093,-2.279825,-2.313525
1515650843270,0.346255,-0.247865,-0.228205,-2.896994,-2.029683,-2.247328
1515650843280,0.422201,-0.287254,-0.253124,-2.857429,-1.702269,-2.136904
1515650843290,0.505158,-0.307552,-0.306907,-2.770218,-1.356595,-2.007488
1515650843300,0.596937,-0.345178,-0.370971,-2.641334,-1.158978,-1.811883
1515650843310,0.677134,-0.380526,-0.460935,-2.402879,-1.134277,-1.466031
1515650843320,0.718025,-0.425447,-0.545065,-1.986433,-1.090958,-1.094276
1515650843330,0.743408,-0.428531,-0.654472,-1.342219,-1.026277,-0.787564
1515650843340,0.726831,-0.360487,-0.668941,-0.777585,-0.931128,-0.62251
1515650843350,0.67235,-0.244245,-0.597935,-0.407111,-0.73653,-0.535742
1515650843360,0.618431,-0.183561,-0.507438,-0.189565,-0.395435,-0.483733
1515650843370,0.649882,-0.087357,-0.430196,-0.014497,-0.017908,-0.458268
1515650843380,0.728681,0.070006,-0.371711,0.140337,0.390189,-0.559771
1515650843391,0.787466,0.142378,-0.338997,0.279142,0.857246,-0.677294
1515650843401,0.920745,0.136076,-0.327822,0.410537,1.332341,-0.692328
1515650843411,1.103205,0.069038,-0.347981,0.530442,1.744679,-0.590887
1515650843421,1.246877,-0.104033,-0.421909,0.64004,2.032507,-0.449754
1515650843431,1.346368,-0.320192,-0.534272,0.769734,1.905894,0.095287
1515650843441,1.458927,-0.412486,-0.658135,0.861117,1.397838,0.837373
1515650843451,1.317689,-0.539626,-0.744789,0.856363,0.743479,1.426345
1515650843461,1.079418,-0.541559,-0.782817,0.835719,0.074664,1.896922
1515650843471,0.816367,-0.410666,-0.783359,0.833975,-0.532305,2.223243
1515650843481,0.532669,-0.272933,-0.719156,0.918523,-0.893655,2.33221
1515650843491,0.301198,-0.128693,-0.6111,1.133722,-0.937695,2.269438
1515650843501,0.147288,-0.009867,-0.490238,1.44569,-0.668164,2.119399
1515650843511,0.059195,0.027387,-0.379058,1.759359,-0.210142,1.98513
1515650843522,0.039803,0.015116,-0.286822,2.018815,0.32991,1.91183
1515650843532,0.065102,-0.026839,-0.196355,2.219936,0.904604,1.946543
1515650843542,0.093634,-0.105126,-0.144658,2.337685,1.335086,2.06078
1515650843552,0.120163,-0.152801,-0.15964,2.365918,1.519787,2.207727
1515650843562,0.129245,-0.173316,-0.203331,2.319417,1.482367,2.378754
1515650843572,0.102098,-0.188727,-0.247904,2.188551,1.261511,2.545034
1515650843582,0.050999,-0.165049,-0.255444,1.969988,0.919599,2.656337
1515650843592,-0.03491,-0.141997,-0.244921,1.71651,0.545802,2.695246
1515650843602,-0.080862,-0.082599,-0.218233,1.45873,0.194768,2.67864
1515650843612,-0.109013,-0.019746,-0.173534,1.249441,-0.047701,2.620063
1515650843622,-0.131879,0.021297,-0.13446,1.120315,-0.121809,2.579081
1515650843632,-0.137785,0.048785,-0.104851,1.073632,-0.096237,2.579248
1515650843642,-0.127262,0.079235,-0.076207,1.04058,-0.001173,2.617695
1515650843653,-0.112568,0.115096,-0.044234,1.014767,0.177278,2.696568
1515650843663,-0.097712,0.15451,-0.03419,1.034474,0.379315,2.799767
1515650843673,-0.101933,0.197484,-0.056227,1.106157,0.556909,2.894237
1515650843683,-0.119466,0.251892,-0.090024,1.251128,0.65664,2.962872
1515650843693,-0.149464,0.310839,-0.114066,1.404626,0.732853,3.026164
1515650843703,-0.193341,0.367932,-0.116491,1.53064,0.77588,3.067203
1515650843713,-0.264341,0.437594,-0.110582,1.600657,0.733582,2.997576
1515650843723,-0.360775,0.563856,-0.084346,1.590277,0.609492,2.738398
1515650843733,-0.47248,0.657856,-0.051158,1.487852,0.413607,2.426336
1515650843743,-0.536971,0.67872,-0.000326,1.287958,0.211873,2.154192
1515650843753,-0.56796,0.715412,0.079137,1.054007,0.079518,1.914127
1515650843763,-0.608648,0.762007,0.151923,0.85799,0.042681,1.664171
1515650843773,-0.64876,0.822029,0.197215,0.717832,0.136935,1.371119
1515650843784,-0.670939,0.890937,0.228053,0.664225,0.381573,1.051892
1515650843794,-0.662923,0.929252,0.23079,0.693189,0.661891,0.717324
1515650843804,-0.641139,0.931908,0.211565,0.778322,0.938146,0.371849
1515650843814,-0.616409,0.883537,0.191931,0.872057,1.162834,0.05949
1515650843824,-0.588973,0.830971,0.170957,0.916222,1.289579,-0.192765
1515650843834,-0.535124,0.814414,0.170378,0.865211,1.338416,-0.348447
1515650843844,-0.389944,0.954113,0.224831,0.726478,1.279991,-0.532437
1515650843854,-0.280498,1.134153,0.270561,0.489489,1.082379,-0.793755
1515650843864,-0.231502,1.191846,0.270695,0.101156,0.797644,-1.077801
1515650843874,-0.244781,1.156156,0.219481,-0.39702,0.347699,-1.384654
1515650843884,-0.299887,1.052173,0.136052,-0.96076,-0.164542,-1.699686
1515650843894,-0.314281,0.994758,0.0757,-1.562705,-0.652191,-2.027397
1515650843904,-0.284016,1.002825,0.008422,-2.036602,-1.066391,-2.397377
1515650843914,-0.228951,0.979378,-0.094584,-2.258486,-1.390106,-2.714106
1515650843925,-0.144279,0.933015,-0.174668,-2.268727,-1.572302,-2.92304
1515650843935,-0.07471,0.866699,-0.211842,-2.100096,-1.646307,-3.0208
1515650843945,-0.007334,0.766412,-0.221878,-1.820487,-1.577065,-2.987924
1515650843955,0.074638,0.674481,-0.184035,-1.518945,-1.356039,-2.871008
1515650843965,0.142084,0.585195,-0.128909,-1.187952,-1.028151,-2.680703
1515650843975,0.172277,0.473626,-0.092635,-0.830602,-0.637132,-2.458567
1515650843985,0.160379,0.375007,-0.066786,-0.470125,-0.226627,-2.274894
1515650843995,0.131824,0.314516,-0.048447,-0.122211,0.107078,-2.166855
1515650844005,0.088645,0.258504,-0.044362,0.156041,0.310155,-2.117061
1515650844015,0.069607,0.166025,-0.044934,0.345692,0.328733,-2.076266
1515650844025,0.080766,0.081409,-0.027302,0.409635,0.172273,-2.030447
1515650844035,0.079912,0.015142,0.002946,0.356098,-0.048841,-1.980842
1515650844045,0.063321,-0.045966,0.017226,0.236912,-0.290622,-1.908514
1515650844056,0.044085,-0.105269,0.024727,0.108046,-0.467151,-1.821285
1515650844066,0.020273,-0.142275,0.028891,-0.011409,-0.58585,-1.723494
1515650844076,-0.000768,-0.170087,0.038622,-0.150147,-0.609338,-1.608662
1515650844086,-0.011249,-0.195797,0.046085,-0.281653,-0.551302,-1.508907
1515650844096,-0.029634,-0.193887,0.009199,-0.333767,-0.460657,-1.455428
1515650844106,-0.038115,-0.17631,-0.057158,-0.293706,-0.367351,-1.450379
1515650844116,-0.028084,-0.15469,-0.137489,-0.178348,-0.306766,-1.49898
1515650844126,-0.011307,-0.127962,-0.214162,-0.003592,-0.276837,-1.59476
1515650844136,0.008915,-0.126355,-0.266065,0.168095,-0.294128,-1.676592
1515650844146,0.032068,-0.168931,-0.25645,0.226378,-0.293963,-1.674707
1515650844156,0.070043,-0.244753,-0.15972,0.080918,-0.152583,-1.538705
1515650844166,0.131468,-0.335841,-0.031348,-0.220433,0.055224,-1.281507
1515650844176,0.175497,-0.402879,0.054946,-0.571438,0.199456,-0.981321
1515650844187,0.186464,-0.410074,0.045415,-0.86109,0.382836,-0.760429
1515650844197,0.194088,-0.2925,0.010412,-1.056488,0.576889,-0.68939
1515650844207,0.114418,-0.24952,-0.105059,-1.077566,0.523363,-0.710584
1515650844217,0.121937,-0.199065,-0.253507,-0.891711,0.335544,-0.7485
1515650844227,0.087385,-0.162559,-0.387469,-0.560562,0.086384,-0.859539
1515650844237,0.081196,-0.178745,-0.446409,-0.318381,-0.180256,-0.956304
1515650844247,0.116561,-0.171303,-0.430024,-0.274142,-0.541903,-1.026489
1515650844257,0.139938,-0.135164,-0.418465,-0.412034,-0.966096,-1.124636
1515650844267,0.196804,-0.08145,-0.41963,-0.601934,-1.356007,-1.253561
1515650844277,0.270136,-0.05875,-0.416691,-0.787548,-1.765308,-1.358995
1515650844287,0.322543,-0.072879,-0.405489,-0.992278,-2.152311,-1.435555
1515650844297,0.389859,-0.079046,-0.359419,-1.210001,-2.413067,-1.484466
1515650844307,0.446191,-0.094465,-0.310977,-1.347192,-2.671469,-1.527318
1515650844318,0.486939,-0.103926,-0.303835,-1.332909,-2.900593,-1.549508
1515650844328,0.565052,-0.025519,-0.252651,-1.248417,-3.246463,-1.536628
1515650844338,0.560219,0.026566,-0.209342,-1.139759,-3.497055,-1.494082
1515650844348,0.630296,0.110212,-0.072353,-1.100818,-3.372874,-1.450642
1515650844358,0.675265,0.090169,0.130803,-1.099859,-2.845083,-1.369118
1515650844368,0.858463,-0.064801,0.321796,-1.080287,-2.09109,-1.08942
1515650844378,1.18753,-0.28321,0.475287,-1.016782,-1.521676,-0.508677
1515650844388,1.537779,-0.548765,0.549843,-0.937421,-1.375863,0.376735
1515650844398,1.772104,-0.844703,0.577564,-0.918476,-1.670762,1.514861
1515650844408,1.791933,-0.916561,0.560616,-1.02006,-2.095273,2.575739
1515650844418,1.649567,-0.601352,0.56424,-1.268789,-2.631751,3.227513
1515650844428,1.468439,-0.261358,0.559559,-1.551438,-3.183492,3.696928
1515650844438,1.300541,-0.069661,0.522559,-1.770712,-3.655189,4.051761
1515650844448,1.138127,0.099457,0.540442,-1.892242,-3.787049,4.20935
1515650844459,0.999199,0.254524,0.587133,-1.799147,-3.723252,4.148031
1515650844469,0.908322,0.357969,0.598395,-1.548217,-3.637413,4.058261
1515650844479,0.865139,0.368882,0.66159,-1.178949,-3.375427,4.166298
1515650844489,0.748147,0.44791,0.792566,-0.478403,-2.921297,4.399703
1515650844499,0.600889,0.60426,0.908389,0.557292,-2.115083,4.700613
1515650844509,0.280518,0.617412,1.035403,1.558784,-0.239303,4.917072
1515650844519,-0.133462,0.530099,1.094743,2.359728,2.187512,4.730226
1515650844529,-0.38019,0.379074,0.864316,2.679824,3.520687,4.205234
1515650844539,-0.399325,0.213562,0.546363,2.170539,3.276443,3.678288
1515650844549,-0.285551,0.042316,0.376203,1.162236,2.06033,3.305191
1515650844559,-0.116473,-0.12913,0.293648,0.261586,0.56796,2.964003
1515650844569,-0.042745,-0.199844,0.350973,-0.453158,-0.657141,2.635567
1515650844579,-0.030626,-0.237085,0.478592,-1.064224,-1.31792,2.429795
1515650844590,-0.038996,-0.314265,0.579695,-1.597959,-1.479764,2.337272
1515650844600,0.015771,-0.361017,0.640776,-2.004416,-1.202836,2.42085
1515650844610,0.136899,-0.333343,0.63147,-2.238649,-0.672796,2.769156
1515650844620,0.194116,-0.262655,0.52759,-2.265197,-0.130646,3.1774
1515650844630,0.129095,-0.146053,0.382372,-2.140948,0.238635,3.321575
1515650844640,-0.010374,0.068242,0.251461,-1.953332,0.204346,3.220483
1515650844650,-0.152302,0.280233,0.138034,-1.880783,-0.033418,3.032604
1515650844660,-0.287218,0.326519,0.024503,-1.932669,-0.555996,2.734611
1515650844670,-0.367091,0.393635,-0.046413,-2.039266,-1.264678,2.339954
1515650844680,-0.354441,0.462742,0.016749,-2.21072,-1.862769,2.07352
1515650844690,-0.356572,0.434048,0.144776,-2.508499,-2.345215,1.959053
1515650844700,-0.360493,0.409024,0.273532,-2.870105,-2.702148,1.988795
1515650844710,-0.3076,0.412487,0.323198,-3.106601,-3.08358,2.064999
1515650844721,-0.266494,0.424882,0.328558,-3.138092,-3.205313,2.179497
1515650844731,-0.235335,0.423766,0.338727,-2.961683,-2.94289,2.299029
1515650844741,-0.243854,0.514455,0.276403,-2.673217,-2.591887,2.125508
1515650844751,-0.297909,0.737143,0.245319,-2.349583,-2.338877,1.858028
1515650844761,-0.246021,0.536544,0.161075,-1.96471,-2.436131,1.825552
1515650844771,-0.337571,0.53648,0.16507,-1.553445,-2.485274,1.829199
1515650844781,-0.297807,0.542424,0.398153,-1.365878,-2.02252,1.744563
1515650844791,-0.302476,0.603816,0.582475,-1.349255,-1.417398,1.582558
1515650844801,-0.374458,0.644767,0.608831,-1.428454,-1.086746,1.402093
1515650844811,-0.400218,0.566756,0.564848,-1.538006,-0.914138,1.313748
1515650844821,-0.405574,0.571947,0.511773,-1.576298,-0.865333,1.171887
1515650844831,-0.336507,0.65955,0.420927,-1.559005,-1.054226,0.818744
1515650844841,-0.222352,0.751549,0.427937,-1.527257,-1.073752,0.456788
1515650844852,-0.11015,0.773517,0.535725,-1.51477,-0.998548,0.207941
1515650844862,-0.01532,0.774631,0.639164,-1.578972,-0.737598,0.048848
1515650844872,-0.001366,0.735259,0.709701,-1.72814,-0.386037,-0.069439
1515650844882,-0.064,0.70202,0.619086,-1.975922,-0.490706,-0.283863
1515650844892,-0.071972,0.731553,0.495415,-2.310255,-0.762204,-0.611914
1515650844902,-0.097436,0.771772,0.425688,-2.595836,-1.034663,-0.932705
1515650844912,-0.069473,0.75871,0.366411,-2.748177,-1.175252,-1.191254
1515650844922,0.053385,0.726537,0.365729,-2.70201,-0.972507,-1.214121
1515650844932,0.217481,0.689529,0.343466,-2.450392,-0.688818,-1.017018
1515650844942,0.338464,0.61496,0.223259,-2.016216,-0.532289,-0.777837
1515650844952,0.409139,0.540146,0.101632,-1.458448,-0.209986,-0.620515
1515650844962,0.438036,0.460638,-0.004582,-0.876746,-0.17125,-0.51951
1515650844972,0.418671,0.371037,-0.050094,-0.39632,-0.345526,-0.518141
1515650844982,0.409005,0.214339,-0.063305,0.03002,-0.499678,-0.50269
1515650844993,0.457488,0.06503,-0.084305,0.31916,-0.90284,-0.479936
1515650845003,0.538554,-0.010262,-0.058792,0.469477,-1.775772,-0.439991
1515650845013,0.54967,-0.054169,-0.040388,0.679702,-2.884965,-0.252709
1515650845023,0.524387,-0.138738,-0.015806,0.886469,-3.866855,-0.029277
1515650845033,0.458095,-0.259149,0.051252,0.800183,-3.653406,0.085038
1515650845043,0.333816,-0.374001,0.318763,-0.675146,-1.18851,-0.081466
1515650845053,0.15389,-0.359061,0.412726,-1.520693,-0.719949,0.196943
1515650845063,0.078566,-0.186556,0.19295,-1.55122,-1.221213,0.793304
1515650845073,0.081811,-0.237586,0.092196,-1.487278,-1.352114,1.084595
1515650845083,0.002086,-0.352798,0.17065,-1.609118,-0.890619,1.066391
1515650845093,-0.116642,-0.325076,0.278806,-1.764182,-0.271253,0.95313
1515650845103,-0.226964,-0.24619,0.263732,-1.757246,-0.079426,0.732978
1515650845113,-0.313827,-0.199624,0.192609,-1.629883,-0.206934,0.38249
1515650845124,-0.295449,-0.203538,0.230896,-1.400577,0.057363,0.158096
1515650845134,-0.178297,-0.279796,0.281854,-1.379615,0.649194,0.300298
1515650845144,-0.17256,-0.261914,0.306709,-1.19341,1.261284,0.346769
1515650845154,-0.172521,-0.126676,0.333875,-1.01104,1.691321,0.374271
1515650845164,-0.099536,0.003861,0.33015,-0.762807,2.529412,0.470361
1515650845174,-0.12214,0.096263,0.286789,-0.67252,3.358907,0.261863
1515650845184,-0.124898,0.130087,0.187772,-0.556867,4.231773,0.180221
1515650845194,-0.049172,0.093486,0.07439,-0.617177,4.663401,0.172467
1515650845204,-0.048556,0.016548,-0.043864,-0.823993,4.272645,0.202659
1515650845214,-0.071096,-0.052418,-0.169784,-1.066524,3.269918,0.252983
1515650845224,-0.099625,-0.115629,-0.214913,-1.286359,2.071113,0.319466
1515650845234,-0.136138,-0.17175,-0.223065,-1.398453,1.026959,0.376752
1515650845244,-0.149779,-0.220651,-0.246541,-1.41051,0.253603,0.331874
1515650845255,-0.211578,-0.256883,-0.291875,-1.42422,-0.298114,-0.115676
1515650845265,-0.536735,-0.344954,-0.335115,-1.384891,-0.458037,-1.108316
1515650845275,-0.432393,-0.428872,-0.384677,-1.211337,0.097492,-1.32857
1515650845285,0.06593,-0.293824,-0.364424,-1.043518,0.40817,-1.222936
1515650845295,0.25799,-0.16113,-0.429119,-0.908038,0.004672,-1.225142
1515650845305,0.321948,-0.126814,-0.51709,-0.824684,-0.313026,-1.276335
1515650845315,0.34454,-0.090715,-0.50066,-0.768475,-0.346544,-1.396079
1515650845325,0.408157,-0.006351,-0.431332,-0.679801,-0.214656,-1.579146
1515650845335,0.499789,0.069674,-0.379993,-0.610041,-0.156611,-1.789795
1515650845345,0.586833,0.070569,-0.393048,-0.557147,-0.128041,-1.901065
1515650845355,0.656708,-0.087845,-0.443894,-0.402482,-0.103082,-1.87187
1515650845365,0.607497,-0.357759,-0.511421,-0.17555,-0.157843,-1.711594
1515650845375,0.613677,-0.554166,-0.497183,0.038231,0.000784,-1.38075
1515650845385,0.678539,-0.63677,-0.441301,0.198656,0.334506,-0.959167
1515650845396,0.697459,-0.649895,-0.428668,0.265132,0.505112,-0.541245
1515650845406,0.650103,-0.616043,-0.425115,0.173243,0.413853,-0.128726
1515650845416,0.598746,-0.545971,-0.400255,0.038942,0.322912,0.194316
1515650845426,0.519759,-0.48384,-0.396147,-0.002142,0.235019,0.392068
1515650845436,0.4543,-0.434004,-0.405535,0.079565,0.199298,0.514511
1515650845446,0.425705,-0.364745,-0.409835,0.272598,0.131935,0.603432
1515650845456,0.387379,-0.318115,-0.411467,0.530059,0.153958,0.638597
1515650845466,0.338161,-0.312398,-0.36621,0.788565,0.187546,0.718573
1515650845476,0.324288,-0.301818,-0.307436,1.055495,0.249793,0.857189
1515650845486,0.28385,-0.261618,-0.247347,1.359375,0.373334,0.97315
1515650845496,0.260198,-0.235248,-0.220826,1.514012,0.415261,1.037544
1515650845506,0.247932,-0.222983,-0.188519,1.517466,0.303329,1.141206
1515650845516,0.235008,-0.198383,-0.134568,1.369693,0.055915,1.252084
1515650845527,0.184674,-0.159747,-0.073647,1.203888,-0.188187,1.332085
1515650845537,0.109928,-0.12041,-0.016095,1.105722,-0.354822,1.387151
1515650845547,0.048521,-0.094843,0.025166,1.086868,-0.450366,1.414036
1515650845557,-0.018653,-0.066399,0.068904,1.15572,-0.437328,1.419062
1515650845567,-0.086894,-0.060514,0.128129,1.307864,-0.236518,1.418162
1515650845577,-0.14312,-0.046199,0.186268,1.502258,0.025537,1.407396
1515650845587,-0.18427,-0.011113,0.215729,1.649207,0.178215,1.387364
1515650845597,-0.188007,0.043982,0.229772,1.670401,0.172089,1.339252
1515650845607,-0.171598,0.089804,0.235597,1.568008,-0.010112,1.290818
1515650845617,-0.151061,0.104174,0.253203,1.376785,-0.267828,1.29302
1515650845627,-0.133113,0.115901,0.292233,1.132542,-0.505573,1.340258
1515650845637,-0.149886,0.128429,0.336549,0.878552,-0.655307,1.350075
1515650845647,-0.184256,0.141712,0.376696,0.658193,-0.683626,1.310491
1515650845658,-0.219946,0.160659,0.381933,0.523487,-0.631282,1.260828
1515650845668,-0.248101,0.192348,0.361074,0.512599,-0.508813,1.188138
1515650845678,-0.27073,0.236732,0.342439,0.606426,-0.30237,1.096753
1515650845688,-0.293282,0.278255,0.319377,0.807118,-0.02479,0.98454
1515650845698,-0.309594,0.302998,0.298119,1.052238,0.285167,0.851818
1515650845708,-0.314907,0.313861,0.286769,1.254014,0.548944,0.715068
1515650845718,-0.308499,0.318443,0.280482,1.353157,0.744839,0.593784
1515650845728,-0.287003,0.322828,0.283021,1.363429,0.879301,0.49217
1515650845738,-0.253096,0.322668,0.276881,1.30505,0.915916,0.419787
1515650845748,-0.218741,0.331299,0.26374,1.203537,0.81509,0.38192
1515650845758,-0.19371,0.360113,0.264974,1.075564,0.69815,0.336719
1515650845768,-0.163238,0.403719,0.279021,0.953828,0.632827,0.257267
1515650845778,-0.136506,0.444987,0.288777,0.840541,0.580414,0.172421
1515650845789,-0.160846,0.460617,0.314135,0.676548,0.458126,0.103894
1515650845799,-0.199609,0.474835,0.358225,0.483927,0.343263,0.033344
1515650845809,-0.186497,0.526674,0.377843,0.360907,0.374533,-0.080381
1515650845819,-0.157692,0.602973,0.387142,0.331941,0.515608,-0.242676
1515650845829,-0.122698,0.695665,0.414182,0.297572,0.699699,-0.440227
1515650845839,-0.061,0.804905,0.456406,0.200557,0.936291,-0.676004
1515650845849,0.022286,0.897986,0.478469,0.012373,1.187656,-0.921015
1515650845859,0.080324,0.927767,0.462869,-0.284699,1.32604,-1.134464
1515650845869,0.09698,0.898058,0.425847,-0.744525,1.276158,-1.290412
1515650845879,0.078034,0.867117,0.390637,-1.366271,1.135565,-1.400723
1515650845889,0.035571,0.836256,0.335109,-2.036633,0.939082,-1.504354
1515650845899,-0.035445,0.780046,0.237678,-2.620908,0.630319,-1.599676
1515650845909,-0.087062,0.715269,0.144755,-3.083126,0.240253,-1.646314
1515650845919,-0.090611,0.684749,0.066935,-3.392962,-0.053045,-1.670241
1515650845930,-0.036408,0.71446,0.00018,-3.512409,-0.186237,-1.673834
1515650845940,0.027493,0.771378,-0.05796,-3.392654,-0.188173,-1.643389
1515650845950,0.060823,0.813507,-0.118707,-3.029352,-0.108028,-1.598074
1515650845960,0.09278,0.830234,-0.172477,-2.464897,0.054203,-1.564396
1515650845970,0.100488,0.822035,-0.195194,-1.813664,0.265041,-1.557834
1515650845980,0.08779,0.796346,-0.186452,-1.172122,0.539319,-1.602544
1515650845990,0.06101,0.740335,-0.157495,-0.636504,0.789908,-1.687334
1515650846000,0.037631,0.656794,-0.12099,-0.279808,0.968127,-1.761663
1515650846010,0.01671,0.562132,-0.084811,-0.156028,1.052357,-1.819936
1515650846020,-0.009364,0.464915,-0.063849,-0.257651,0.998746,-1.872803
1515650846030,0.004396,0.368226,-0.066756,-0.532786,0.825555,-1.898096
1515650846040,0.05073,0.269171,-0.090861,-0.934824,0.542421,-1.867206
1515650846050,0.08514,0.200007,-0.131817,-1.364322,0.221567,-1.808399
1515650846061,0.134097,0.091256,-0.200078,-1.74606,-0.127265,-1.696391
1515650846071,0.159019,0.025036,-0.295648,-2.001602,-0.513419,-1.544315
1515650846081,0.138748,0.004769,-0.372079,-2.082283,-0.90649,-1.403654
1515650846091,0.102695,-0.027255,-0.414178,-2.032814,-1.222744,-1.335156
1515650846101,0.037675,-0.049303,-0.420655,-1.821395,-1.469478,-1.360294
1515650846111,0.008569,-0.075857,-0.392868,-1.537202,-1.565772,-1.430767
1515650846121,0.033479,-0.113419,-0.318948,-1.325472,-1.47407,-1.430717
1515650846131,0.050682,-0.164921,-0.203369,-1.270796,-1.270894,-1.320196
1515650846141,-0.008879,-0.223868,-0.118078,-1.355074,-1.009037,-1.243321
1515650846151,-0.053378,-0.252452,-0.101926,-1.475471,-0.713828,-1.216492
1515650846161,-0.016444,-0.261349,-0.161607,-1.551164,-0.511574,-1.214281
1515650846171,0.032576,-0.275424,-0.241545,-1.648819,-0.435901,-1.193679
1515650846181,0.068778,-0.301476,-0.304309,-1.792783,-0.496652,-1.128948
1515650846192,0.095381,-0.321216,-0.374268,-1.955471,-0.711854,-1.041525
1515650846202,0.093316,-0.322777,-0.445876,-2.131705,-1.032002,-0.972058
1515650846212,0.074766,-0.309434,-0.508444,-2.241068,-1.405365,-0.933765
1515650846222,0.06109,-0.291963,-0.543684,-2.281711,-1.710862,-0.927872
1515650846232,0.0321,-0.278312,-0.540523,-2.295099,-1.890599,-0.987363
1515650846242,0.013332,-0.267817,-0.527962,-2.260971,-1.997144,-1.085581
1515650846252,0.032643,-0.276487,-0.526822,-2.152814,-2.03815,-1.176719
1515650846262,0.091741,-0.285649,-0.512163,-1.991918,-1.966687,-1.23086
1515650846272,0.186152,-0.287726,-0.496685,-1.807758,-1.866497,-1.230704
1515650846282,0.281826,-0.31129,-0.493716,-1.609755,-1.791153,-1.181475
1515650846292,0.348291,-0.33647,-0.478852,-1.440331,-1.72575,-1.089417
1515650846302,0.40354,-0.347203,-0.461802,-1.337532,-1.718467,-0.984196
1515650846312,0.438843,-0.374027,-0.457814,-1.316012,-1.850813,-0.85817
1515650846323,0.461261,-0.3748,-0.429771,-1.391672,-2.122745,-0.729416
1515650846333,0.503651,-0.303412,-0.368936,-1.544569,-2.448436,-0.608808
1515650846343,0.592485,-0.182206,-0.29706,-1.741037,-2.725661,-0.564928
1515650846353,0.679336,-0.042545,-0.22489,-1.921833,-2.913466,-0.610887
1515650846363,0.744091,0.052396,-0.161079,-1.97794,-2.952606,-0.74509
1515650846373,0.803006,0.007713,-0.089011,-1.794939,-2.827927,-0.929618
1515650846383,0.892685,-0.174434,-0.014988,-1.403458,-2.566105,-0.990322
1515650846393,1.03667,-0.42746,0.099181,-0.942141,-2.226285,-0.751486
1515650846403,1.194151,-0.639083,0.235843,-0.621629,-1.915053,-0.235564
1515650846413,1.300687,-0.747998,0.394451,-0.662163,-1.727679,0.408011
1515650846423,1.23524,-0.794367,0.554982,-1.06161,-1.688898,0.984987
1515650846433,1.046284,-0.811133,0.639443,-1.638875,-1.764335,1.370739
1515650846443,0.85499,-0.770212,0.624013,-2.148259,-1.889967,1.550261
1515650846453,0.759486,-0.687645,0.54353,-2.375963,-1.943328,1.586524
1515650846464,0.764892,-0.620688,0.434379,-2.229977,-1.833477,1.560142
1515650846474,0.820114,-0.587183,0.351081,-1.802569,-1.521397,1.540848
1515650846484,0.886367,-0.585936,0.308299,-1.247066,-1.145038,1.59885
1515650846494,0.945278,-0.63522,0.290982,-0.651237,-0.777899,1.811459
1515650846504,0.990632,-0.673997,0.306424,-0.198407,-0.421505,2.159181
1515650846514,0.971649,-0.660384,0.354883,-0.03165,-0.083132,2.511352
1515650846524,0.861769,-0.601229,0.405065,-0.147627,0.153181,2.749577
1515650846534,0.721887,-0.521932,0.413269,-0.466709,0.220143,2.880009
1515650846544,0.602387,-0.438125,0.374769,-0.889396,0.168271,2.929917
1515650846554,0.477859,-0.374584,0.294521,-1.273742,0.025704,2.928534
1515650846564,0.372526,-0.316654,0.184541,-1.445186,-0.080523,2.857878
1515650846574,0.249375,-0.178608,0.098298,-1.303326,-0.039521,2.670428
1515650846584,0.189288,-0.123519,-0.00666,-0.835513,0.202378,2.568862
1515650846595,0.127347,-0.097729,-0.105183,-0.15853,0.717783,2.317693
1515650846605,0.067117,-0.039069,-0.17165,0.62369,1.085658,2.065192
1515650846615,0.265061,-0.256841,-0.322396,1.300816,1.115413,2.305629
1515650846625,0.289016,-0.224959,-0.281576,1.658065,1.058433,2.344736
1515650846635,0.268976,-0.108305,-0.201011,1.796972,1.027376,2.425303
1515650846645,0.266892,-0.147541,-0.158613,1.859707,0.941434,2.509464
1515650846655,0.202093,-0.092013,-0.109657,1.879039,0.829885,2.545813
1515650846665,0.147376,-0.020364,-0.047198,1.78385,0.746158,2.520705
1515650846675,0.103785,0.001733,0.008486,1.554128,0.634482,2.433233
1515650846685,0.086535,0.026708,0.053268,1.227082,0.451585,2.388966
1515650846695,0.091531,0.067005,0.072896,0.924494,0.241553,2.430014
1515650846705,0.06323,0.085616,0.061412,0.728941,0.029666,2.478073
1515650846715,0.010582,0.103326,0.052634,0.605386,-0.159364,2.496983
1515650846726,-0.036435,0.164234,0.074316,0.496516,-0.287062,2.471995
1515650846736,-0.09451,0.237059,0.112402,0.378093,-0.410315,2.409679
1515650846746,-0.13374,0.289813,0.145648,0.295574,-0.478733,2.33006
1515650846756,-0.159426,0.320632,0.156198,0.296567,-0.462057,2.209419
1515650846766,-0.192718,0.357262,0.167402,0.330359,-0.425821,2.05339
1515650846776,-0.213517,0.412454,0.184803,0.351463,-0.40248,1.897432
1515650846786,-0.235087,0.454372,0.201407,0.367243,-0.366352,1.752155
1515650846796,-0.247757,0.489789,0.22052,0.409386,-0.273328,1.600289
1515650846806,-0.244188,0.540741,0.234178,0.496981,-0.132899,1.422556
1515650846816,-0.226802,0.598725,0.244709,0.59616,0.038732,1.225518
1515650846826,-0.218413,0.635203,0.255651,0.694303,0.198639,1.01569
1515650846836,-0.226123,0.64458,0.268798,0.772383,0.328396,0.824131
1515650846846,-0.216597,0.655996,0.286749,0.837721,0.475076,0.668893
1515650846857,-0.1675,0.67699,0.283977,0.934852,0.621729,0.538073
1515650846867,-0.119788,0.73189,0.296937,0.992833,0.73942,0.390383
1515650846877,-0.078723,0.832682,0.333118,0.932168,0.835609,0.186651
1515650846887,-0.048377,0.924077,0.363784,0.71678,0.930581,-0.080469
1515650846897,-0.057331,0.951306,0.373215,0.354177,0.98457,-0.382127
1515650846907,-0.072301,0.910638,0.36044,-0.096187,0.953552,-0.663022
1515650846917,-0.073559,0.861029,0.315602,-0.59394,0.796789,-0.893391
1515650846927,-0.062679,0.830614,0.25099,-1.06187,0.57461,-1.093919
1515650846937,-0.019748,0.812741,0.179142,-1.440857,0.384794,-1.285261
1515650846947,0.015619,0.807262,0.116779,-1.697978,0.19324,-1.484592
1515650846957,0.040373,0.795225,0.062935,-1.821593,0.007446,-1.684501
1515650846967,0.078752,0.74602,0.009554,-1.784344,-0.081591,-1.854266
1515650846977,0.103298,0.659468,-0.037306,-1.563875,-0.119924,-1.984314
1515650846987,0.109995,0.548334,-0.058345,-1.188712,-0.142135,-2.031782
1515650846998,0.108634,0.418736,-0.046651,-0.701303,-0.118379,-1.991197
1515650847008,0.085088,0.292481,-0.002286,-0.147297,-0.015426,-1.893356
1515650847018,0.040055,0.189065,0.077881,0.402183,0.217088,-1.782849
1515650847028,-0.025497,0.105707,0.172591,0.861458,0.50934,-1.674169
1515650847038,-0.102784,0.04833,0.263595,1.144876,0.777522,-1.571111
1515650847048,-0.176154,0.013022,0.346464,1.215411,0.994765,-1.478821
1515650847058,-0.236011,-0.003509,0.403273,1.108125,1.116298,-1.421944
1515650847068,-0.298505,-0.009096,0.42969,0.870722,1.132687,-1.413478
1515650847078,-0.34661,-0.013318,0.430057,0.547549,1.115812,-1.446234
1515650847088,-0.370456,-0.016754,0.401831,0.185271,1.047636,-1.527857
1515650847098,-0.378156,-0.015517,0.347203,-0.162,0.90034,-1.632929
1515650847108,-0.358974,-0.020121,0.273379,-0.433928,0.707208,-1.739338
1515650847118,-0.330351,-0.034591,0.206008,-0.628515,0.520694,-1.837541
1515650847129,-0.290564,-0.052933,0.156725,-0.746895,0.376059,-1.909434
1515650847139,-0.238127,-0.075193,0.118624,-0.800717,0.273219,-1.944299
1515650847149,-0.181441,-0.098316,0.081775,-0.800549,0.197198,-1.953812
1515650847159,-0.113283,-0.11247,0.046438,-0.754832,0.131891,-1.93578
1515650847169,-0.036874,-0.118127,0.024758,-0.700795,0.139351,-1.89546
1515650847179,0.012279,-0.129807,0.010238,-0.653235,0.199312,-1.859447
1515650847189,0.061249,-0.146972,-0.002162,-0.620545,0.273186,-1.829788
1515650847199,0.108307,-0.155869,-0.035157,-0.59206,0.332082,-1.806501
1515650847209,0.180245,-0.163927,-0.06789,-0.563484,0.352344,-1.770359
1515650847219,0.241893,-0.175946,-0.107417,-0.530611,0.345844,-1.736335
1515650847229,0.300317,-0.209013,-0.139636,-0.496609,0.310336,-1.685203
1515650847239,0.341709,-0.247465,-0.1679,-0.472028,0.223339,-1.62756
1515650847249,0.369376,-0.292886,-0.194718,-0.436808,0.119147,-1.552862
1515650847260,0.390572,-0.353096,-0.211994,-0.380415,0.026708,-1.459057
1515650847270,0.410274,-0.406772,-0.218994,-0.317711,-0.042285,-1.336488
1515650847280,0.440723,-0.442562,-0.220657,-0.23491,-0.092044,-1.191614
1515650847290,0.459884,-0.468192,-0.2205,-0.141512,-0.141787,-1.043584
1515650847300,0.46227,-0.484071,-0.21115,-0.033354,-0.157217,-0.892457
1515650847310,0.468447,-0.499236,-0.197316,0.098046,-0.140472,-0.733996
1515650847320,0.47151,-0.514868,-0.179629,0.2252,-0.119481,-0.570187
1515650847330,0.458759,-0.518411,-0.151543,0.302524,-0.08992,-0.436066
1515650847340,0.439053,-0.513896,-0.121542,0.309918,-0.067947,-0.326184
1515650847350,0.433588,-0.503824,-0.103152,0.274999,-0.079348,-0.209669
1515650847360,0.444524,-0.479653,-0.093195,0.197767,-0.121968,-0.088671
1515650847370,0.475086,-0.40554,-0.083939,0.05591,-0.173262,0.014465
1515650847380,0.516585,-0.264199,-0.077459,-0.14536,-0.199785,0.055918
1515650847391,0.542752,-0.10716,-0.089969,-0.388087,-0.177734,0.000352
1515650847401,0.543239,0.028052,-0.129473,-0.607583,-0.131506,-0.163147
1515650847411,0.533978,0.108469,-0.181603,-0.776347,-0.032327,-0.386703
1515650847421,0.556034,0.120331,-0.24593,-0.891234,0.142992,-0.592438
1515650847431,0.616662,0.072009,-0.32628,-0.919306,0.360038,-0.734551
1515650847441,0.682379,-0.035444,-0.419337,-0.82017,0.569376,-0.758719
1515650847451,0.725916,-0.204361,-0.514025,-0.566216,0.748394,-0.625535
1515650847461,0.759998,-0.387995,-0.602149,-0.176554,0.915167,-0.318931
1515650847471,0.789671,-0.520906,-0.656201,0.253394,1.088859,0.128387
1515650847481,0.79749,-0.581474,-0.688449,0.618944,1.155158,0.587856
1515650847491,0.780695,-0.522471,-0.690576,0.869255,1.093032,0.949777
1515650847501,0.755983,-0.379365,-0.662158,1.030658,0.971194,1.201145
1515650847511,0.709476,-0.241925,-0.622255,1.169726,0.878638,1.368243
1515650847521,0.643579,-0.134169,-0.575372,1.299059,0.868751,1.494723
1515650847532,0.550248,-0.076923,-0.533451,1.424984,0.95964,1.606148
1515650847542,0.431078,-0.073629,-0.508554,1.568762,1.122378,1.715272
1515650847552,0.306863,-0.098704,-0.502465,1.735781,1.316248,1.82533
1515650847562,0.18798,-0.121342,-0.509503,1.918638,1.534917,1.913936
1515650847572,0.088793,-0.144769,-0.527555,2.116413,1.715191,1.976904
1515650847582,0.014634,-0.166183,-0.553748,2.307055,1.763792,2.013388
1515650847592,-0.032459,-0.173511,-0.581123,2.481077,1.663403,2.053331
1515650847602,-0.064074,-0.171975,-0.584563,2.626678,1.478261,2.09884
1515650847612,-0.095658,-0.167581,-0.564384,2.752186,1.272809,2.123111
1515650847622,-0.115005,-0.153851,-0.533139,2.886159,1.074781,2.167617
1515650847632,-0.108909,-0.118208,-0.484833,3.04324,0.972001,2.24713
1515650847642,-0.111179,-0.08281,-0.427489,3.223471,0.944204,2.343528
1515650847652,-0.11994,-0.048124,-0.384052,3.40779,0.984929,2.451564
1515650847663,-0.103919,-0.002794,-0.345352,3.548647,1.035044,2.584324
1515650847673,-0.076401,0.035992,-0.315154,3.613343,1.027963,2.753772
1515650847683,-0.044048,0.073813,-0.294457,3.570095,0.959387,2.944038
1515650847693,-0.023916,0.136445,-0.265413,3.417777,0.854176,3.110264
1515650847703,-0.022818,0.226066,-0.234191,3.218765,0.772683,3.219022
1515650847713,-0.035634,0.323754,-0.208866,3.044986,0.771988,3.253924
1515650847723,-0.053571,0.399384,-0.204493,2.92934,0.831781,3.225523
1515650847733,-0.078575,0.455989,-0.20216,2.83795,0.939045,3.145723
1515650847743,-0.092017,0.503649,-0.202181,2.735937,1.053942,3.032871
1515650847753,-0.088052,0.545146,-0.207313,2.608536,1.147408,2.905211
1515650847763,-0.08265,0.575943,-0.210114,2.421906,1.190341,2.777866
1515650847773,-0.083024,0.600466,-0.214932,2.191987,1.162463,2.64439
1515650847783,-0.087852,0.619235,-0.228623,1.943147,1.064919,2.504679
1515650847794,-0.100876,0.623006,-0.249344,1.702824,0.947101,2.35322
1515650847804,-0.117819,0.623752,-0.263834,1.475271,0.806823,2.20173
1515650847814,-0.132875,0.625129,-0.267416,1.255202,0.638665,2.059846
1515650847824,-0.147347,0.630614,-0.267065,1.044665,0.471628,1.913654
1515650847834,-0.168266,0.639122,-0.262928,0.847846,0.328266,1.754567
1515650847844,-0.186646,0.652728,-0.252507,0.661592,0.198917,1.584741
1515650847854,-0.204452,0.666118,-0.244482,0.496472,0.095356,1.412659
1515650847864,-0.217137,0.680156,-0.2398,0.373686,0.017552,1.257442
1515650847874,-0.206596,0.716094,-0.236976,0.294286,-0.030218,1.121213
1515650847884,-0.174696,0.799861,-0.224332,0.227555,-0.058617,0.975301
1515650847894,-0.135291,0.935673,-0.201577,0.131154,-0.094318,0.771888
1515650847904,-0.095696,1.091148,-0.181598,-0.012892,-0.158584,0.46731
1515650847914,-0.092002,1.21068,-0.172254,-0.237332,-0.299578,0.031881
1515650847925,-0.16626,1.227262,-0.154003,-0.56771,-0.463993,-0.496995
1515650847935,-0.292317,1.079341,-0.121232,-0.957383,-0.64179,-0.956222
1515650847945,-0.402609,0.845151,-0.115832,-1.331177,-0.797754,-1.272514
1515650847955,-0.455322,0.673884,-0.109662,-1.659556,-0.878941,-1.517574
1515650847965,-0.472551,0.594524,-0.105168,-1.920187,-0.926746,-1.755497
1515650847975,-0.446788,0.570533,-0.117019,-2.076937,-0.985106,-1.962898
1515650847985,-0.364749,0.569239,-0.143357,-2.072489,-1.096748,-2.131425
1515650847995,-0.241263,0.587489,-0.162355,-1.914386,-1.204937,-2.255778
1515650848005,-0.133509,0.617208,-0.140046,-1.614457,-1.233531,-2.357357
1515650848015,-0.059766,0.640224,-0.096207,-1.182343,-1.139554,-2.466059
1515650848025,-0.01642,0.633008,-0.045628,-0.651979,-0.912413,-2.578549
1515650848035,-0.003369,0.576141,0.023272,-0.080533,-0.571712,-2.664673
1515650848045,-0.006754,0.492194,0.103101,0.470579,-0.136001,-2.694256
1515650848055,-0.007964,0.393673,0.177926,0.943161,0.355997,-2.671273
1515650848066,-0.008592,0.293312,0.241142,1.272752,0.823747,-2.598548
1515650848076,-0.021138,0.206616,0.286083,1.430921,1.184757,-2.494003
1515650848086,-0.040332,0.147695,0.297522,1.431471,1.42215,-2.402507
1515650848096,-0.055736,0.114237,0.282013,1.289318,1.499582,-2.33155
1515650848106,-0.067968,0.084726,0.244417,1.028837,1.417051,-2.266291
1515650848116,-0.072111,0.068787,0.18874,0.716718,1.204799,-2.215593
1515650848126,-0.063764,0.06645,0.11669,0.440767,0.92744,-2.192719
1515650848136,-0.054525,0.049769,0.049358,0.25919,0.619444,-2.200099
1515650848146,-0.05823,0.027071,0.001398,0.144324,0.328984,-2.24621
1515650848156,-0.067449,0.001911,-0.013998,0.037784,0.104016,-2.314855
1515650848166,-0.065074,-0.03012,-0.016576,-0.065679,-0.075934,-2.385703
1515650848176,-0.036736,-0.057514,-0.029563,-0.160663,-0.256941,-2.45445
1515650848186,0.021283,-0.084421,-0.038465,-0.247203,-0.416744,-2.473093
1515650848197,0.089325,-0.127528,-0.039085,-0.320053,-0.530782,-2.422474
1515650848207,0.154525,-0.174597,-0.032133,-0.371851,-0.575419,-2.311188
1515650848217,0.200757,-0.214785,-0.029016,-0.382505,-0.538491,-2.203382
1515650848227,0.246195,-0.241455,-0.03678,-0.359354,-0.456381,-2.111788
1515650848237,0.282739,-0.267036,-0.048811,-0.315104,-0.332441,-2.017131
1515650848247,0.298979,-0.297413,-0.063513,-0.252901,-0.181591,-1.936464
1515650848257,0.308779,-0.324717,-0.081668,-0.171609,-0.039159,-1.875083
1515650848267,0.328303,-0.343613,-0.107128,-0.099754,0.058262,-1.816805
1515650848277,0.353566,-0.352839,-0.133618,-0.030993,0.117098,-1.757398
1515650848287,0.375578,-0.364027,-0.15586,0.032535,0.149032,-1.677655
1515650848297,0.392748,-0.376972,-0.1764,0.097151,0.172282,-1.574428
1515650848307,0.408287,-0.378795,-0.189159,0.159638,0.200791,-1.453048
1515650848317,0.425016,-0.364499,-0.194237,0.201992,0.228129,-1.324105
1515650848328,0.431924,-0.335578,-0.191127,0.210451,0.247973,-1.21636
1515650848338,0.415791,-0.280841,-0.188728,0.203991,0.298075,-1.169429
1515650848348,0.428612,-0.213644,-0.202453,0.196401,0.376216,-1.159888
1515650848358,0.440937,-0.200638,-0.242861,0.280922,0.488015,-1.183876
1515650848368,0.439099,-0.231446,-0.274692,0.441605,0.66205,-1.181578
1515650848378,0.457721,-0.275897,-0.292795,0.661506,0.898063,-1.111296
1515650848388,0.515577,-0.306922,-0.311318,0.904661,1.168106,-0.976046
1515650848398,0.581359,-0.295793,-0.312311,1.12566,1.394133,-0.836373
1515650848408,0.63159,-0.239897,-0.295513,1.315036,1.541017,-0.743435
1515650848418,0.669722,-0.202181,-0.282686,1.518283,1.639985,-0.701731
1515650848428,0.685599,-0.228015,-0.273674,1.742837,1.685587,-0.687804
1515650848438,0.704425,-0.285195,-0.259979,1.955921,1.648614,-0.665186
1515650848448,0.744965,-0.349146,-0.22523,2.125541,1.627202,-0.566616
1515650848459,0.782345,-0.421595,-0.171686,2.180659,1.64038,-0.383276
1515650848469,0.809666,-0.474266,-0.11616,2.074794,1.622653,-0.114887
1515650848479,0.816414,-0.493476,-0.072375,1.836634,1.535759,0.193648
1515650848489,0.80508,-0.481405,-0.039389,1.510716,1.360779,0.496262
1515650848499,0.782065,-0.451936,-0.024803,1.161485,1.182691,0.763753
1515650848509,0.752544,-0.416426,-0.027703,0.854605,1.012576,0.961676
1515650848519,0.720138,-0.369228,-0.040507,0.599612,0.854648,1.11026
1515650848529,0.699613,-0.342804,-0.053966,0.396408,0.757877,1.272425
1515650848539,0.669809,-0.332146,-0.065268,0.201655,0.672905,1.436676
1515650848549,0.627117,-0.313061,-0.074563,-0.056554,0.534098,1.616207
1515650848559,0.583234,-0.302788,-0.087992,-0.349596,0.339276,1.835446
1515650848569,0.533516,-0.277573,-0.114445,-0.679788,0.167033,2.016393
1515650848579,0.462929,-0.241995,-0.14942,-1.052165,-0.102509,2.132532
1515650848589,0.380169,-0.231331,-0.182229,-1.416055,-0.380405,2.210218
1515650848600,0.298323,-0.215356,-0.238516,-1.701563,-0.640981,2.299287
1515650848610,0.242964,-0.154334,-0.280222,-1.862178,-0.837872,2.368532
1515650848620,0.166821,-0.096191,-0.310067,-1.89473,-0.969805,2.37951
1515650848630,0.081232,-0.044389,-0.323776,-1.766349,-1.043259,2.361976
1515650848640,0.005065,0.009025,-0.326398,-1.438902,-1.04652,2.353111
1515650848650,-0.050244,0.037158,-0.346699,-0.965282,-1.022539,2.340385
1515650848660,-0.08671,0.034651,-0.356912,-0.412213,-0.980403,2.387072
1515650848670,-0.112167,0.048568,-0.34345,0.174642,-0.877346,2.483705
1515650848680,-0.124892,0.079621,-0.311796,0.725291,-0.694091,2.59
1515650848690,-0.144319,0.133023,-0.264144,1.185734,-0.457267,2.642175
1515650848700,-0.174611,0.184917,-0.194779,1.511598,-0.222825,2.661835
1515650848710,-0.18492,0.225866,-0.13415,1.711383,0.00051,2.684185
1515650848720,-0.194882,0.266085,-0.088572,1.816923,0.192544,2.696305
1515650848731,-0.202733,0.303697,-0.060703,1.84629,0.326637,2.680001
1515650848741,-0.212536,0.338192,-0.037079,1.797366,0.403747,2.656632
1515650848751,-0.220979,0.373282,-0.017749,1.71454,0.47858,2.639814
1515650848761,-0.224029,0.406437,-0.018449,1.632847,0.518173,2.600618
1515650848771,-0.236175,0.444776,-0.018624,1.534288,0.513985,2.522057
1515650848781,-0.251551,0.491457,-0.01491,1.419857,0.495937,2.4201
1515650848791,-0.263285,0.543043,-0.018744,1.316026,0.475842,2.305291
1515650848801,-0.273551,0.588738,-0.022729,1.239748,0.454813,2.179689
1515650848811,-0.27266,0.633161,-0.025409,1.211061,0.473633,2.041027
1515650848821,-0.268329,0.684495,-0.024777,1.214134,0.504436,1.881933
1515650848831,-0.270411,0.729902,-0.017291,1.236223,0.562021,1.734467
1515650848841,-0.265945,0.763291,-0.010399,1.283688,0.645387,1.588994
1515650848851,-0.266549,0.795352,-0.000059,1.351226,0.752538,1.412452
1515650848862,-0.272388,0.823371,0.011926,1.395514,0.829656,1.22858
1515650848872,-0.284022,0.836117,0.02661,1.374283,0.829314,1.06963
1515650848882,-0.283768,0.854811,0.063203,1.288424,0.82752,0.948316
1515650848892,-0.241381,0.928391,0.099667,1.167514,0.862058,0.824972
1515650848902,-0.195863,1.048178,0.126623,1.013817,0.861466,0.6367
1515650848912,-0.184561,1.177606,0.14941,0.797674,0.816203,0.345215
1515650848922,-0.218059,1.263856,0.163896,0.452365,0.708955,-0.054518
1515650848932,-0.298185,1.257536,0.162127,-0.052778,0.515778,-0.506828
1515650848942,-0.372132,1.192733,0.133464,-0.627743,0.268874,-0.969446
1515650848952,-0.408461,1.146339,0.084646,-1.139216,0.057725,-1.474008
1515650848962,-0.405149,1.093693,-0.004035,-1.491652,-0.194617,-2.00161
1515650848972,-0.393989,0.980856,-0.092102,-1.697727,-0.497118,-2.480677
1515650848982,-0.34083,0.868321,-0.149951,-1.788301,-0.78692,-2.858851
1515650848993,-0.242139,0.777072,-0.180037,-1.763483,-1.015816,-3.135124
1515650849003,-0.137261,0.701617,-0.184418,-1.585225,-1.137604,-3.312922
1515650849013,-0.030108,0.630103,-0.167265,-1.250349,-1.154376,-3.400789
1515650849023,0.061469,0.559759,-0.118898,-0.810755,-1.082164,-3.437975
1515650849033,0.133784,0.487879,-0.038708,-0.350196,-0.900876,-3.420955
1515650849043,0.181358,0.403526,0.059587,0.087854,-0.595778,-3.322875
1515650849053,0.194943,0.303447,0.150656,0.468551,-0.224806,-3.148845
1515650849063,0.189296,0.207552,0.226562,0.770782,0.173558,-2.928621
1515650849073,0.169977,0.13771,0.281675,0.953349,0.535159,-2.713173
1515650849083,0.130632,0.086015,0.308685,1.007932,0.789332,-2.516259
1515650849093,0.08254,0.039495,0.309725,0.929223,0.937225,-2.357067
1515650849103,0.03801,0.005377,0.293543,0.726728,0.99377,-2.216441
1515650849113,-0.021694,-0.028395,0.258626,0.425884,0.961142,-2.084894
1515650849123,-0.069499,-0.068544,0.202805,0.131635,0.819363,-1.975653
1515650849134,-0.101568,-0.089288,0.133403,-0.114736,0.588947,-1.895326
1515650849144,-0.114374,-0.109444,0.07249,-0.33036,0.348054,-1.843936
1515650849154,-0.137007,-0.116306,0.031601,-0.547105,0.130919,-1.830998
1515650849164,-0.152695,-0.112914,-0.000848,-0.725803,-0.045184,-1.858835
1515650849174,-0.146017,-0.103269,-0.03844,-0.843125,-0.188711,-1.937142
1515650849184,-0.138212,-0.110058,-0.073392,-0.900076,-0.319167,-2.022126
1515650849194,-0.120728,-0.139203,-0.098477,-0.912596,-0.412177,-2.069989
1515650849204,-0.079706,-0.171827,-0.108736,-0.88814,-0.45062,-2.080719
1515650849214,-0.029906,-0.208107,-0.124532,-0.82982,-0.465524,-2.064938
1515650849224,0.029098,-0.233849,-0.138743,-0.753502,-0.470837,-2.027899
1515650849234,0.087213,-0.238734,-0.134901,-0.695218,-0.464574,-1.959843
1515650849244,0.141289,-0.242677,-0.125194,-0.652849,-0.449777,-1.893862
1515650849254,0.177026,-0.251351,-0.117043,-0.613749,-0.394277,-1.827921
1515650849265,0.207843,-0.267636,-0.1122,-0.556755,-0.28414,-1.750381
1515650849275,0.239418,-0.271499,-0.111147,-0.491335,-0.153499,-1.697454
1515650849285,0.272398,-0.277029,-0.112539,-0.410018,-0.024856,-1.663809
1515650849295,0.313481,-0.289943,-0.119348,-0.336121,0.102757,-1.642936
1515650849305,0.351246,-0.303957,-0.125524,-0.247343,0.212131,-1.608229
1515650849315,0.412816,-0.335442,-0.145549,-0.135132,0.273081,-1.516989
1515650849325,0.485077,-0.378259,-0.165659,-0.027038,0.284516,-1.381906
1515650849335,0.530356,-0.399191,-0.167414,0.053582,0.262585,-1.232788
1515650849345,0.540251,-0.401988,-0.167078,0.115135,0.237388,-1.084651
1515650849355,0.530693,-0.410555,-0.166765,0.168138,0.2433,-0.949326
1515650849365,0.52975,-0.415502,-0.17243,0.24228,0.27186,-0.831199
1515650849375,0.536572,-0.409072,-0.183198,0.302741,0.254468,-0.744977
1515650849385,0.556359,-0.396311,-0.184645,0.319864,0.190791,-0.641435
1515650849396,0.611543,-0.347983,-0.175537,0.27872,0.126629,-0.475733
1515650849406,0.664758,-0.24401,-0.161025,0.203542,0.114942,-0.32596
1515650849416,0.687498,-0.111934,-0.146381,0.140826,0.207703,-0.273507
1515650849426,0.733074,0.008377,-0.149131,0.165889,0.368702,-0.316512
1515650849436,0.833929,0.101516,-0.155478,0.302112,0.572043,-0.404874
1515650849446,0.97442,0.149868,-0.155243,0.491272,0.800027,-0.461473
1515650849456,1.12908,0.152978,-0.141776,0.683691,0.99775,-0.463609
1515650849466,1.234109,0.089532,-0.137038,0.831852,1.094175,-0.374702
1515650849476,1.277064,-0.051988,-0.150648,0.865848,1.078218,-0.162417
1515650849486,1.223965,-0.245369,-0.193547,0.755923,0.988349,0.175459
1515650849496,1.120471,-0.400431,-0.23938,0.538948,0.917048,0.592756
1515650849506,1.012086,-0.463222,-0.287068,0.264826,0.814348,1.041293
1515650849516,0.892833,-0.453552,-0.339581,0.030013,0.664755,1.464102
1515650849527,0.767284,-0.380297,-0.391606,-0.062687,0.454866,1.817001
1515650849537,0.648487,-0.267473,-0.430558,0.027821,0.285736,2.055921
1515650849547,0.538555,-0.136825,-0.434189,0.288709,0.206611,2.18086
1515650849557,0.438661,-0.010442,-0.406974,0.662704,0.241869,2.210173
1515650849567,0.346208,0.083315,-0.353489,1.119074,0.39354,2.148257
1515650849577,0.267163,0.126523,-0.290958,1.598482,0.665361,2.069019
1515650849587,0.200248,0.116428,-0.222844,2.00655,1.09015,1.995231
1515650849597,0.140167,0.03911,-0.165698,2.253495,1.544181,1.97653
1515650849607,0.117001,-0.050912,-0.121371,2.305673,1.913544,2.061237
1515650849617,0.108387,-0.117232,-0.110394,2.237379,2.140837,2.203207
1515650849627,0.092194,-0.167025,-0.136825,2.117376,2.270492,2.34232
1515650849637,0.076998,-0.200028,-0.1967,1.967043,2.218111,2.443362
1515650849647,0.070486,-0.206259,-0.252189,1.749399,1.938451,2.533229
1515650849657,0.047148,-0.178685,-0.279212,1.447235,1.540814,2.596925
1515650849668,0.007946,-0.152108,-0.295203,1.097518,1.081015,2.636354
1515650849678,-0.022692,-0.111662,-0.290924,0.767981,0.599902,2.665048
1515650849688,-0.050843,-0.048747,-0.271902,0.510377,0.174724,2.692298
1515650849698,-0.092023,0.01136,-0.234052,0.328796,-0.130154,2.704129
1515650849708,-0.129351,0.076819,-0.189917,0.202033,-0.309428,2.698492
1515650849718,-0.163498,0.141784,-0.15163,0.125847,-0.360973,2.676466
1515650849728,-0.193747,0.191761,-0.126228,0.106715,-0.338377,2.645565
1515650849738,-0.214934,0.232456,-0.113495,0.123585,-0.303887,2.614496
1515650849748,-0.232784,0.271447,-0.100829,0.147824,-0.245878,2.598309
1515650849758,-0.243669,0.302592,-0.093298,0.164568,-0.154621,2.570371
1515650849768,-0.261724,0.328857,-0.091577,0.17287,-0.081501,2.522211
1515650849778,-0.280803,0.361736,-0.089797,0.163199,-0.026649,2.474151
1515650849788,-0.289711,0.404094,-0.088199,0.121738,0.027083,2.416622
1515650849799,-0.291016,0.452008,-0.09525,0.076047,0.074476,2.338838
1515650849809,-0.288286,0.507537,-0.108577,0.037836,0.094073,2.253582
1515650849819,-0.277739,0.568693,-0.115078,-0.000354,0.102992,2.160871
1515650849829,-0.261358,0.633157,-0.121998,-0.03323,0.10133,2.044672
1515650849839,-0.246477,0.692762,-0.132888,-0.043812,0.080536,1.911319
1515650849849,-0.236693,0.750138,-0.135591,-0.043806,0.063059,1.764038
1515650849859,-0.230092,0.804539,-0.133548,-0.05121,0.038202,1.587981
1515650849869,-0.229326,0.852954,-0.133292,-0.081907,0.001541,1.40137
1515650849879,-0.240302,0.868281,-0.131457,-0.13691,-0.06099,1.231968
1515650849889,-0.255361,0.864391,-0.11891,-0.209881,-0.141862,1.077604
1515650849899,-0.268866,0.850293,-0.108083,-0.289222,-0.21848,0.925402
1515650849909,-0.283467,0.828395,-0.098719,-0.338877,-0.301492,0.783758
1515650849919,-0.263291,0.832978,-0.089394,-0.339732,-0.40486,0.671815
1515650849930,-0.197491,0.897395,-0.062744,-0.340534,-0.528751,0.592989
1515650849940,-0.125057,1.020702,-0.011989,-0.398561,-0.652755,0.502664
1515650849950,-0.102919,1.139473,0.051031,-0.56789,-0.767133,0.348758
1515650849960,-0.151399,1.205446,0.108897,-0.827349,-0.867332,0.090616
1515650849970,-0.243426,1.216305,0.149013,-1.139867,-0.940592,-0.230311
1515650849980,-0.321715,1.202337,0.162369,-1.457794,-0.968673,-0.590763
1515650849990,-0.383961,1.187298,0.1477,-1.744014,-0.96531,-1.006897
1515650850000,-0.432587,1.141477,0.106474,-1.916903,-0.943125,-1.476905
1515650850010,-0.47677,1.020825,0.048094,-1.909788,-0.859264,-1.960569
1515650850020,-0.473127,0.866878,-0.013337,-1.709921,-0.71944,-2.378947
1515650850030,-0.400176,0.714565,-0.077289,-1.355241,-0.611888,-2.678395
1515650850040,-0.282853,0.5736,-0.110325,-0.891247,-0.565671,-2.858687
1515650850050,-0.155341,0.461441,-0.087811,-0.409157,-0.541483,-2.907744
1515650850061,-0.035792,0.377222,-0.017424,0.013455,-0.446208,-2.853095
1515650850071,0.053752,0.308434,0.081686,0.330951,-0.251931,-2.734075
1515650850081,0.100322,0.243739,0.184889,0.548657,0.027572,-2.577381
1515650850091,0.115037,0.187177,0.266791,0.678257,0.377453,-2.406525
1515650850101,0.10286,0.135696,0.305623,0.756008,0.692908,-2.238605
1515650850111,0.088759,0.093559,0.291529,0.819091,0.93128,-2.090807
1515650850121,0.07092,0.060624,0.249997,0.887622,1.100149,-1.967493
1515650850131,0.053502,0.03015,0.201972,0.952081,1.193001,-1.856875
1515650850141,0.039191,0.003848,0.153787,0.974369,1.188265,-1.753428
1515650850151,0.01286,-0.010041,0.117486,0.943842,1.106288,-1.661396
1515650850161,-0.021298,-0.031926,0.094063,0.854064,0.983463,-1.577603
1515650850171,-0.051648,-0.058279,0.072334,0.711394,0.819798,-1.499941
1515650850181,-0.085756,-0.064509,0.052574,0.536957,0.640173,-1.463747
1515650850191,-0.115541,-0.06541,0.02589,0.352996,0.450039,-1.474465
1515650850202,-0.133903,-0.063739,-0.010806,0.184949,0.246244,-1.528997
1515650850212,-0.143325,-0.066026,-0.048064,0.034926,0.03617,-1.602809
1515650850222,-0.13568,-0.079827,-0.080918,-0.097071,-0.177132,-1.66282
1515650850232,-0.106069,-0.093108,-0.106859,-0.207819,-0.410935,-1.681266
1515650850242,-0.062472,-0.115971,-0.127244,-0.28887,-0.650298,-1.641127
1515650850252,-0.038053,-0.148656,-0.137825,-0.35297,-0.882339,-1.555173
1515650850262,-0.031946,-0.168914,-0.13245,-0.402356,-1.057675,-1.444801
1515650850272,-0.027277,-0.169137,-0.12018,-0.411651,-1.157748,-1.363513
1515650850282,-0.031691,-0.160196,-0.104178,-0.390318,-1.215757,-1.319768
1515650850292,-0.039003,-0.13098,-0.083645,-0.380697,-1.251121,-1.312298
1515650850302,-0.059083,-0.116701,-0.063214,-0.40712,-1.287383,-1.361239
1515650850312,-0.075026,-0.111273,-0.050098,-0.457915,-1.326832,-1.43035
1515650850322,-0.075162,-0.106105,-0.047058,-0.529913,-1.363035,-1.51859
1515650850333,-0.070146,-0.121495,-0.047137,-0.585002,-1.378819,-1.609064
1515650850343,-0.055996,-0.142542,-0.048304,-0.627429,-1.366868,-1.667606
1515650850353,-0.026138,-0.165465,-0.045117,-0.672095,-1.297309,-1.678174
1515650850363,0.026045,-0.184623,-0.048998,-0.714652,-1.21728,-1.638599
1515650850373,0.075845,-0.197988,-0.056563,-0.766695,-1.157764,-1.57334
1515650850383,0.110739,-0.208012,-0.070052,-0.823974,-1.124052,-1.493083
1515650850393,0.135135,-0.204876,-0.083914,-0.886532,-1.098899,-1.418132
1515650850403,0.164181,-0.182578,-0.095647,-0.932123,-1.081148,-1.352849
1515650850413,0.228912,-0.144405,-0.117645,-0.922626,-1.055725,-1.28888
1515650850423,0.315372,-0.092183,-0.142482,-0.852708,-1.042833,-1.253971
1515650850433,0.417359,-0.065592,-0.151968,-0.729728,-1.065138,-1.219241
1515650850443,0.545872,-0.094208,-0.152022,-0.567313,-1.186004,-1.162144
1515650850453,0.663312,-0.154804,-0.133374,-0.437363,-1.474318,-1.062003
1515650850464,0.745583,-0.237467,-0.07555,-0.490375,-1.91165,-0.838145
1515650850474,0.808012,-0.291351,0.033997,-0.878252,-2.324208,-0.412221
1515650850484,0.816865,-0.228293,0.173236,-1.578898,-2.661752,0.037361
1515650850494,0.746382,-0.078195,0.278205,-2.326368,-2.932009,0.286389
1515650850504,0.665733,0.046974,0.276904,-2.795506,-3.068313,0.267215
1515650850514,0.642223,0.092532,0.207754,-2.902621,-3.052578,0.055245
1515650850524,0.675262,0.019668,0.13898,-2.733313,-2.964378,-0.127044
1515650850534,0.759556,-0.161117,0.080034,-2.435644,-2.9124,-0.058998
1515650850544,0.861093,-0.328153,0.067674,-2.199145,-2.957489,0.31577
1515650850554,0.90446,-0.449704,0.106163,-2.160667,-3.040684,0.908107
1515650850564,0.839493,-0.50509,0.170804,-2.327796,-3.104494,1.571749
1515650850574,0.697787,-0.448171,0.232975,-2.621136,-3.129636,2.139817
1515650850584,0.552597,-0.300198,0.260895,-2.889128,-3.13766,2.51349
1515650850595,0.468591,-0.09367,0.240245,-2.963235,-3.153602,2.657924
1515650850605,0.429839,0.124995,0.217098,-2.850998,-3.119784,2.604033
1515650850615,0.404243,0.288103,0.218092,-2.612904,-2.988547,2.426731
1515650850625,0.407207,0.366484,0.244718,-2.296581,-2.77663,2.23085
1515650850635,0.442662,0.39548,0.283869,-1.97606,-2.539361,2.109642
1515650850645,0.478736,0.363416,0.315118,-1.721253,-2.281484,2.113568
1515650850655,0.490334,0.292106,0.329746,-1.54901,-2.053256,2.212878
1515650850665,0.473758,0.228508,0.32672,-1.435842,-1.9411,2.34888
1515650850675,0.435982,0.187098,0.322796,-1.283378,-1.872621,2.45809
1515650850685,0.360394,0.179138,0.347438,-1.054866,-1.698595,2.502794
1515650850695,0.266749,0.200538,0.42614,-0.762053,-1.375327,2.522487
1515650850705,0.180131,0.224122,0.512211,-0.355168,-0.879493,2.595914
1515650850715,0.106118,0.231404,0.572509,0.211438,-0.249428,2.703713
1515650850725,0.078235,0.278183,0.624527,0.888132,0.426292,2.745876
1515650850736,0.101533,0.375946,0.637416,1.517833,0.778927,2.664826
1515650850746,0.107346,0.427597,0.713661,1.835534,0.860672,2.576909
1515650850756,0.050484,0.419708,0.848288,1.714715,0.866746,2.575285
1515650850766,-0.027917,0.405951,0.986797,1.201971,0.81026,2.637319
1515650850776,-0.119523,0.415464,1.083834,0.415934,0.707985,2.694165
1515650850786,-0.204012,0.437603,1.100004,-0.486596,0.560901,2.642697
1515650850796,-0.284875,0.449167,1.027027,-1.320153,0.362944,2.521623
1515650850806,-0.330024,0.426446,0.87401,-1.940638,0.132401,2.402878
1515650850816,-0.341228,0.375353,0.693827,-2.335328,-0.130898,2.328041
1515650850826,-0.351063,0.335572,0.549497,-2.614426,-0.427312,2.302918
1515650850836,-0.372223,0.327746,0.447708,-2.803601,-0.654949,2.290131
1515650850846,-0.391362,0.336777,0.375979,-2.890189,-0.787178,2.328025
1515650850856,-0.418218,0.332866,0.324541,-2.899398,-0.93194,2.347459
1515650850867,-0.450339,0.363679,0.304681,-2.872759,-1.001336,2.314343
1515650850877,-0.480791,0.39584,0.298614,-2.845194,-1.010806,2.296097
1515650850887,-0.525245,0.391564,0.302679,-2.843155,-0.974394,2.300312
1515650850897,-0.582885,0.394364,0.306905,-2.857067,-0.915424,2.28322
1515650850907,-0.627491,0.425356,0.300097,-2.847744,-0.828207,2.201949
1515650850917,-0.663845,0.451379,0.278344,-2.790722,-0.754391,2.043636
1515650850927,-0.693843,0.453924,0.253926,-2.688111,-0.696307,1.844591
1515650850937,-0.709206,0.446345,0.240533,-2.557917,-0.654126,1.628373
1515650850947,-0.717154,0.440259,0.241274,-2.449953,-0.623732,1.399452
1515650850957,-0.719324,0.419864,0.253884,-2.388588,-0.60416,1.164336
1515650850967,-0.708068,0.380424,0.266719,-2.392871,-0.607383,0.948745
1515650850977,-0.66812,0.358556,0.278076,-2.459583,-0.647423,0.774028
1515650850987,-0.583738,0.372666,0.293628,-2.565466,-0.697528,0.660332
1515650850998,-0.491584,0.391996,0.302546,-2.661886,-0.711359,0.582844
1515650851008,-0.424293,0.409687,0.304399,-2.729842,-0.658671,0.504081
1515650851018,-0.370754,0.425472,0.298945,-2.740779,-0.514786,0.433503
1515650851028,-0.318971,0.42975,0.27637,-2.674502,-0.303324,0.393462
1515650851038,-0.251231,0.436942,0.238297,-2.530895,-0.074715,0.398966
1515650851048,-0.14448,0.469379,0.194756,-2.340498,0.089335,0.487608
1515650851058,-0.008705,0.56343,0.164324,-2.191177,0.147918,0.64594
1515650851068,0.093639,0.722516,0.159894,-2.183722,0.141054,0.737712
1515650851078,0.103639,0.885654,0.178477,-2.341593,0.122813,0.648745
1515650851088,0.05784,0.980572,0.172539,-2.597941,0.055708,0.416165
1515650851098,0.026131,1.022478,0.144452,-2.864808,-0.051896,0.134583
1515650851108,0.01291,1.012581,0.096875,-3.042646,-0.161588,-0.104683
1515650851118,0.034224,0.962665,0.037188,-3.086964,-0.261638,-0.263414
1515650851128,0.084377,0.916678,0.000525,-3.015823,-0.340025,-0.400245
1515650851139,0.118087,0.902443,-0.006283,-2.887496,-0.407341,-0.574689
1515650851149,0.146936,0.885506,0.008794,-2.770886,-0.446796,-0.756593
1515650851159,0.174547,0.835539,0.034205,-2.700978,-0.446969,-0.894586
1515650851169,0.206949,0.76519,0.073617,-2.670336,-0.415428,-0.970541
1515650851179,0.250166,0.71049,0.114562,-2.610043,-0.372118,-1.025292
1515650851189,0.295266,0.681253,0.172256,-2.521199,-0.301954,-1.076994
1515650851199,0.331482,0.648263,0.242139,-2.425077,-0.166583,-1.094649
1515650851209,0.353622,0.619714,0.296744,-2.367188,0.009301,-1.095117
1515650851219,0.361593,0.609387,0.339648,-2.36019,0.195776,-1.101783
1515650851229,0.35168,0.616486,0.364434,-2.396764,0.436853,-1.126479
1515650851239,0.338259,0.630194,0.379134,-2.414546,0.804433,-1.155686
1515650851249,0.302844,0.628352,0.379887,-2.331005,1.353347,-1.178078
1515650851259,0.250046,0.599186,0.338149,-2.05489,2.028274,-1.217457
1515650851270,0.189737,0.515684,0.200586,-1.577244,2.610944,-1.326964
1515650851280,0.159526,0.445638,0.036869,-0.975029,2.916173,-1.586093
1515650851290,0.161586,0.386009,-0.08944,-0.438778,2.854214,-1.944813
1515650851300,0.181859,0.293054,-0.185325,-0.088311,2.468262,-2.327952
1515650851310,0.225456,0.183186,-0.223139,0.051895,1.812498,-2.65862
1515650851320,0.268335,0.068431,-0.226394,0.02504,1.002526,-2.889113
1515650851330,0.361536,-0.000466,-0.167896,-0.127892,0.194769,-2.995255
1515650851340,0.470572,-0.014462,-0.058538,-0.391359,-0.457296,-3.021067
1515650851350,0.537716,-0.008898,0.071003,-0.793151,-0.853827,-3.024192
1515650851360,0.539235,-0.029538,0.15972,-1.312238,-0.923951,-3.024022
1515650851370,0.507558,-0.074025,0.175999,-1.835057,-0.738417,-2.94517
1515650851380,0.460202,-0.10106,0.074293,-2.204294,-0.515155,-2.820059
1515650851390,0.420687,-0.097279,-0.077075,-2.395432,-0.329702,-2.740488
1515650851401,0.390431,-0.07182,-0.240783,-2.464723,-0.141603,-2.689187
1515650851411,0.348014,-0.056131,-0.418034,-2.428055,0.045,-2.703453
1515650851421,0.30064,-0.072861,-0.582729,-2.249238,0.161486,-2.751333
1515650851431,0.247267,-0.137527,-0.750567,-1.943913,0.099226,-2.758962
1515650851441,0.188303,-0.219805,-0.873439,-1.594799,-0.112028,-2.726029
1515650851451,0.140851,-0.281106,-0.928723,-1.265653,-0.394188,-2.66624
1515650851461,0.144623,-0.332827,-0.957587,-0.965032,-0.715021,-2.603077
1515650851471,0.177643,-0.375721,-0.94804,-0.684486,-1.064692,-2.56968
1515650851481,0.200124,-0.421523,-0.884226,-0.42731,-1.389732,-2.547957
1515650851491,0.200115,-0.494036,-0.788681,-0.222218,-1.637038,-2.462065
1515650851501,0.194994,-0.579495,-0.693184,-0.083974,-1.839813,-2.322572
1515650851511,0.195762,-0.664442,-0.598995,-0.006093,-2.055792,-2.149717
1515650851521,0.208506,-0.735056,-0.511942,0.012431,-2.260345,-1.940335
1515650851532,0.23335,-0.782676,-0.422845,-0.031625,-2.435275,-1.69336
1515650851542,0.249168,-0.804777,-0.333864,-0.144623,-2.579508,-1.413038
1515650851552,0.282487,-0.802898,-0.259456,-0.300009,-2.719715,-1.105859
1515650851562,0.315051,-0.786968,-0.209067,-0.50294,-2.926322,-0.83255
1515650851572,0.290049,-0.788065,-0.171531,-0.748062,-3.229094,-0.63686
1515650851582,0.249403,-0.801187,-0.137462,-1.014336,-3.554225,-0.481614
1515650851592,0.232183,-0.795028,-0.116553,-1.264779,-3.853479,-0.349948
1515650851602,0.218003,-0.756356,-0.097286,-1.461325,-4.08723,-0.215392
1515650851612,0.224079,-0.682437,-0.080758,-1.570077,-4.246919,-0.055687
1515650851622,0.274686,-0.536248,-0.05401,-1.605892,-4.328096,0.087601
1515650851632,0.34437,-0.318714,-0.014281,-1.592088,-4.335789,0.134516
1515650851642,0.397044,-0.102742,0.019169,-1.544558,-4.281395,-0.002378
1515650851652,0.449585,0.057189,0.065638,-1.480361,-4.115754,-0.308133
1515650851662,0.515194,0.14034,0.12913,-1.425048,-3.774115,-0.67705
1515650851673,0.601869,0.139142,0.196502,-1.367124,-3.174492,-1.0004
1515650851683,0.703454,0.018322,0.250572,-1.34786,-2.33245,-1.189396
1515650851693,0.826301,-0.176006,0.256032,-1.401753,-1.447847,-1.148645
1515650851703,0.960568,-0.368862,0.189756,-1.505198,-0.647205,-0.843937
1515650851713,1.068958,-0.556598,0.064502,-1.602897,-0.018284,-0.261513
1515650851723,1.126184,-0.704291,-0.101395,-1.627954,0.36581,0.474613
1515650851733,1.111994,-0.754251,-0.27424,-1.54324,0.466518,1.170063
1515650851743,1.075554,-0.69408,-0.411197,-1.367913,0.309003,1.708545
1515650851753,1.041947,-0.56652,-0.497776,-1.149665,-0.108769,2.040095
1515650851763,0.973124,-0.435164,-0.516933,-0.96479,-0.792204,2.128754
1515650851773,0.87113,-0.335255,-0.463102,-0.899421,-1.601504,2.033423
1515650851783,0.767972,-0.272568,-0.320642,-1.000642,-2.31786,1.891724
1515650851793,0.701162,-0.26595,-0.118267,-1.1946,-2.783064,1.819484
1515650851804,0.662219,-0.312219,0.044454,-1.324388,-3.027802,1.834218
1515650851814,0.645585,-0.373817,0.155646,-1.312694,-3.034664,1.928107
1515650851824,0.63133,-0.421817,0.249839,-1.179612,-2.823928,2.073509
1515650851834,0.593756,-0.438303,0.345144,-0.956863,-2.427745,2.253518
1515650851844,0.539912,-0.412123,0.426155,-0.69621,-1.923166,2.419352
1515650851854,0.480035,-0.368165,0.467277,-0.461033,-1.407568,2.50843
1515650851864,0.435081,-0.306672,0.480192,-0.299937,-0.945354,2.515708
1515650851874,0.387745,-0.250634,0.462095,-0.240311,-0.602178,2.485137
1515650851884,0.355535,-0.214569,0.411726,-0.247135,-0.397397,2.451821
1515650851894,0.322357,-0.182325,0.36193,-0.281364,-0.256012,2.438981
1515650851904,0.279082,-0.160065,0.320744,-0.318757,-0.115931,2.470984
1515650851914,0.223081,-0.153823,0.275752,-0.338106,0.012318,2.523209
1515650851924,0.181205,-0.130488,0.236678,-0.322417,0.106562,2.540102
1515650851935,0.162094,-0.094789,0.193169,-0.277913,0.103664,2.503625
1515650851945,0.143889,-0.066789,0.170377,-0.253446,0.05682,2.458748
1515650851955,0.116494,-0.050765,0.172043,-0.271372,0.015082,2.438596
1515650851965,0.10704,-0.039155,0.192427,-0.317892,-0.029064,2.454856
1515650851975,0.106626,-0.022254,0.213884,-0.385649,-0.053025,2.492534
1515650851985,0.098518,0.000508,0.230176,-0.462997,-0.052493,2.553712
1515650851995,0.082447,0.035564,0.245693,-0.551019,-0.013505,2.631958
1515650852005,0.062498,0.078794,0.259833,-0.642308,0.066176,2.712298
1515650852015,0.036623,0.139575,0.258098,-0.71242,0.147231,2.744517
1515650852025,0.00741,0.219212,0.235978,-0.757074,0.209397,2.712609
1515650852035,-0.025956,0.301013,0.209706,-0.791181,0.287959,2.621928
1515650852045,-0.073488,0.369125,0.180878,-0.808393,0.387183,2.479916
1515650852055,-0.125414,0.420797,0.148281,-0.752471,0.47302,2.273564
1515650852066,-0.155982,0.464885,0.110362,-0.609657,0.556076,2.032688
1515650852076,-0.165675,0.505032,0.094003,-0.4234,0.639332,1.77775
1515650852086,-0.160555,0.542567,0.10788,-0.260426,0.714789,1.568815
1515650852096,-0.136141,0.582373,0.135098,-0.174779,0.781207,1.40719
1515650852106,-0.118405,0.641463,0.183363,-0.209936,0.846215,1.24075
1515650852116,-0.123393,0.719113,0.244389,-0.36273,0.914254,1.040648
1515650852126,-0.140509,0.79729,0.286972,-0.614072,0.97788,0.806816
1515650852136,-0.171491,0.857283,0.309945,-0.93006,1.039376,0.531634
1515650852146,-0.220388,0.908385,0.316236,-1.264022,1.077514,0.203187
1515650852156,-0.253333,0.932303,0.29015,-1.554586,1.138234,-0.115865
1515650852166,-0.279235,0.909854,0.210609,-1.735996,1.197077,-0.422573
1515650852176,-0.303948,0.858974,0.108625,-1.786932,1.198346,-0.70735
1515650852186,-0.311414,0.78753,-0.001564,-1.694643,1.127112,-0.976639
1515650852196,-0.297666,0.724168,-0.0964,-1.482498,1.005831,-1.235701
1515650852207,-0.268669,0.6783,-0.160848,-1.211974,0.844939,-1.466143
1515650852217,-0.233623,0.626781,-0.205705,-0.940285,0.644058,-1.626092
1515650852227,-0.185082,0.561791,-0.229649,-0.690796,0.427711,-1.705871
1515650852237,-0.140482,0.503385,-0.219324,-0.451938,0.233517,-1.722659
1515650852247,-0.112422,0.44383,-0.196203,-0.215227,0.057302,-1.693564
1515650852257,-0.113873,0.378005,-0.161653,0.038435,-0.115728,-1.648532
1515650852267,-0.140837,0.326135,-0.10233,0.298309,-0.225497,-1.610006
1515650852277,-0.188966,0.283043,-0.019687,0.507101,-0.238923,-1.585264
1515650852287,-0.250258,0.230504,0.052875,0.629947,-0.203196,-1.585837
1515650852297,-0.308405,0.178349,0.111061,0.635023,-0.106632,-1.610529
1515650852307,-0.357233,0.126578,0.154512,0.558475,0.000473,-1.649826
1515650852317,-0.387076,0.073891,0.162646,0.461858,0.078628,-1.696476
1515650852327,-0.404654,0.006408,0.137241,0.361127,0.103121,-1.727032
1515650852338,-0.406942,-0.065831,0.10106,0.261599,0.067422,-1.718024
1515650852348,-0.397231,-0.118817,0.069443,0.151599,-0.020956,-1.679018
1515650852358,-0.38432,-0.161186,0.04105,0.07353,-0.172434,-1.643271
1515650852368,-0.371569,-0.189814,0.024059,0.012475,-0.354696,-1.654526
1515650852378,-0.375975,-0.18349,0.053417,-0.131271,-0.528318,-1.72948
1515650852388,-0.367908,-0.1771,0.096098,-0.371485,-0.686112,-1.813648
1515650852398,-0.335447,-0.190947,0.106237,-0.720784,-0.866957,-1.852492
1515650852408,-0.298047,-0.189984,0.092811,-1.111323,-1.087559,-1.893241
1515650852418,-0.274508,-0.171239,0.063579,-1.469975,-1.350936,-1.930874
1515650852428,-0.238005,-0.139656,0.023703,-1.785085,-1.664147,-2.046551
1515650852438,-0.158662,-0.074019,-0.011198,-2.197386,-2.110575,-2.147769
1515650852448,-0.091343,-0.046654,-0.021865,-2.686006,-2.544521,-2.219855
1515650852458,-0.059713,-0.021189,0.007797,-3.19388,-2.907348,-2.384813
1515650852469,-0.047035,0.008029,0.048379,-3.776989,-3.269406,-2.534507
1515650852479,0.054667,0.03243,0.050923,-4.382697,-3.480337,-2.709911
1515650852489,0.212316,0.0764,-0.009942,-4.860188,-3.682559,-2.83571
1515650852499,0.302766,0.06489,-0.138301,-5.140466,-3.924383,-2.851289
1515650852509,0.365168,0.088739,-0.13315,-5.065084,-3.518002,-2.871329
1515650852519,0.502366,0.104803,-0.159086,-4.786332,-3.064232,-2.81865
1515650852529,0.523834,0.053762,-0.363533,-4.383452,-2.671306,-2.73654
1515650852539,0.548688,0.001539,-0.448548,-3.868064,-2.358492,-2.635595
1515650852549,0.59824,-0.081583,-0.531124,-3.31248,-2.005266,-2.450544
1515650852559,0.644277,-0.168865,-0.55954,-2.736753,-1.648038,-2.196208
1515650852569,0.658887,-0.159025,-0.511101,-2.157027,-1.180551,-1.920681
1515650852579,0.646368,-0.138107,-0.443373,-1.618887,-0.605708,-1.713422
1515650852589,0.654399,-0.122975,-0.410981,-1.155733,-0.139442,-1.477956
1515650852600,0.694857,-0.139839,-0.40647,-0.780286,0.218248,-1.221699
1515650852610,0.724516,-0.145505,-0.407227,-0.44919,0.509233,-0.936347
1515650852620,0.752558,-0.118211,-0.406056,-0.103225,0.785296,-0.657446
1515650852630,0.776516,-0.048636,-0.38724,0.275571,1.059795,-0.474751
1515650852640,0.807015,0.021414,-0.363497,0.616305,1.291504,-0.328129
1515650852650,0.856682,0.072039,-0.329702,0.899756,1.542688,-0.25387
1515650852660,0.870917,0.187726,-0.273985,1.142955,1.759635,-0.428097
1515650852670,0.867683,0.251527,-0.267517,1.34512,1.847746,-0.573163
1515650852680,0.906903,0.115959,-0.277046,1.420357,1.844897,-0.601232
1515650852690,0.959083,-0.031305,-0.287276,1.340125,1.715778,-0.53882
1515650852700,0.973535,-0.167199,-0.318983,1.120401,1.426052,-0.365669
1515650852710,0.97584,-0.320714,-0.363639,0.775949,1.008858,-0.058399
1515650852720,0.942031,-0.440981,-0.397047,0.351138,0.526548,0.367772
1515650852730,0.851113,-0.490672,-0.427145,-0.102162,-0.004251,0.832544
1515650852741,0.711764,-0.470614,-0.450791,-0.392529,-0.430247,1.218577
1515650852751,0.554499,-0.401358,-0.4768,-0.338985,-0.654182,1.468398
1515650852761,0.410461,-0.321679,-0.490776,0.026642,-0.660014,1.568246
1515650852771,0.308074,-0.244903,-0.459112,0.574114,-0.490127,1.56036
1515650852781,0.240453,-0.185185,-0.384835,1.12541,-0.138944,1.508467
1515650852791,0.195219,-0.158218,-0.290049,1.536646,0.294272,1.465608
1515650852801,0.180021,-0.151308,-0.184207,1.776231,0.724614,1.466181
1515650852811,0.18116,-0.156115,-0.081995,1.820902,1.126421,1.485769
1515650852821,0.170315,-0.16769,0.007792,1.657075,1.412976,1.503187
1515650852831,0.170012,-0.173376,0.018888,1.319945,1.47748,1.471456
1515650852841,0.157957,-0.155919,-0.046838,1.047692,1.433056,1.407563
1515650852851,0.136989,-0.145394,-0.149129,0.820206,1.264805,1.279591
1515650852861,0.124881,-0.160959,-0.265309,0.695503,1.098005,1.137302
1515650852872,0.123376,-0.165553,-0.389365,0.787902,0.990755,1.000416
1515650852882,0.125824,-0.190024,-0.49595,1.022742,0.689803,0.904793
1515650852892,0.124994,-0.238062,-0.552846,1.304464,0.286641,0.923307
1515650852902,0.149159,-0.273947,-0.519816,1.518192,-0.027268,1.049807
1515650852912,0.179168,-0.277962,-0.411027,1.639226,-0.106234,1.273541
1515650852922,0.204074,-0.258372,-0.285216,1.669901,-0.049816,1.579684
1515650852932,0.199751,-0.205756,-0.193196,1.623112,0.051593,1.841264
1515650852942,0.168588,-0.130536,-0.130859,1.555005,0.200446,2.029228
1515650852952,0.139944,-0.074469,-0.112587,1.50165,0.382694,2.189339
1515650852962,0.132372,-0.023888,-0.123556,1.482275,0.532967,2.336533
1515650852972,0.120397,0.036576,-0.137835,1.486276,0.651323,2.452714
1515650852982,0.093773,0.084746,-0.147087,1.487213,0.716207,2.547626
1515650852992,0.070848,0.125366,-0.162508,1.476639,0.714705,2.627727
1515650853003,0.065071,0.164088,-0.17922,1.463045,0.640418,2.691921
1515650853013,0.061435,0.199826,-0.189026,1.4295,0.47949,2.71575
1515650853023,0.060389,0.255228,-0.157366,1.276446,0.210171,2.703932
1515650853033,0.049224,0.305362,-0.108323,1.023695,-0.024912,2.642327
1515650853043,0.00157,0.313522,-0.089588,0.743455,-0.286944,2.596886
1515650853053,-0.025328,0.325528,-0.067544,0.435564,-0.497924,2.610204
1515650853063,-0.059674,0.360868,-0.054485,0.148761,-0.65968,2.647923
1515650853073,-0.106848,0.414147,-0.041288,-0.045035,-0.713903,2.662694
1515650853083,-0.160455,0.467618,-0.038514,-0.098236,-0.61863,2.646791
1515650853093,-0.2226,0.525526,-0.066538,0.015737,-0.413399,2.595882
1515650853103,-0.277852,0.566354,-0.101228,0.307533,-0.120662,2.506744
1515650853113,-0.336924,0.584504,-0.123151,0.713693,0.206746,2.408536
1515650853123,-0.367304,0.639999,-0.091596,1.09025,0.508187,2.343575
1515650853134,-0.369572,0.757566,-0.011482,1.32065,0.776929,2.302761
1515650853144,-0.379715,0.909559,0.096905,1.419556,1.081941,2.214431
1515650853154,-0.436598,1.04849,0.191282,1.414519,1.415161,1.993086
1515650853164,-0.56269,1.127895,0.248952,1.304567,1.731834,1.589686
1515650853174,-0.677954,1.156859,0.267774,1.110913,2.029625,1.055375
1515650853184,-0.693407,1.146549,0.222108,0.925904,2.249357,0.495511
1515650853194,-0.650325,1.093078,0.115868,0.882105,2.350452,-0.037058
1515650853204,-0.596401,1.019478,-0.016389,1.041912,2.383661,-0.584285
1515650853214,-0.52121,0.897405,-0.131225,1.393858,2.270465,-1.091589
1515650853224,-0.429858,0.748137,-0.236962,1.855449,1.944995,-1.505164
1515650853234,-0.296309,0.610506,-0.196307,2.16587,1.474622,-1.741792
1515650853244,-0.170301,0.482829,-0.066393,2.225445,0.888091,-1.824568
1515650853254,-0.102563,0.391079,0.072213,2.03505,0.261677,-1.79415
1515650853264,-0.072668,0.310525,0.227684,1.611359,-0.283246,-1.701998
1515650853275,-0.096989,0.241829,0.387123,1.043184,-0.663594,-1.612639
1515650853285,-0.149644,0.210564,0.50122,0.446039,-0.887446,-1.555373
1515650853295,-0.216715,0.18374,0.538697,-0.068674,-1.015519,-1.533802
1515650853305,-0.277346,0.141297,0.525246,-0.42888,-1.054072,-1.53862
1515650853315,-0.322316,0.100252,0.488371,-0.680051,-1.043007,-1.545033
1515650853325,-0.3608,0.069128,0.434206,-0.875076,-1.023244,-1.543158
1515650853335,-0.371071,0.05933,0.368118,-1.040519,-0.962743,-1.528649
1515650853345,-0.385351,0.052675,0.286658,-1.197421,-0.931101,-1.522682
1515650853355,-0.404133,0.058241,0.187739,-1.345698,-0.971963,-1.581774
1515650853365,-0.419727,0.123119,0.097992,-1.50555,-1.062619,-1.760299
1515650853375,-0.427849,0.212602,0.023406,-1.665331,-1.20176,-2.098871
1515650853385,-0.427697,0.264979,-0.066197,-1.770886,-1.434461,-2.549635
1515650853395,-0.415643,0.259783,-0.154334,-1.848606,-1.79452,-3.011035
1515650853406,-0.365749,0.188105,-0.220835,-1.898897,-2.091668,-3.395776
1515650853416,-0.264807,0.075543,-0.247823,-1.924942,-2.314582,-3.613133
1515650853426,-0.130595,-0.070305,-0.274472,-1.948997,-2.458142,-3.628862
1515650853436,0.026027,-0.173626,-0.261216,-1.996468,-2.536267,-3.459914
1515650853446,0.144113,-0.229547,-0.238509,-1.972445,-2.358278,-3.258503
1515650853456,0.213684,-0.278337,-0.246641,-1.840497,-2.098996,-2.965856
1515650853466,0.294706,-0.299267,-0.249297,-1.662138,-1.740078,-2.644715
1515650853476,0.343466,-0.287804,-0.235987,-1.429906,-1.305941,-2.335639
1515650853486,0.369599,-0.263345,-0.226453,-1.155535,-0.762319,-2.041824
1515650853496,0.381158,-0.275948,-0.220203,-0.867467,-0.182217,-1.750254
1515650853506,0.362944,-0.320201,-0.234568,-0.570947,0.404487,-1.48861
1515650853516,0.357445,-0.347495,-0.247657,-0.27544,0.966673,-1.252544
1515650853526,0.36178,-0.362302,-0.26963,0.008642,1.424979,-1.032314
1515650853537,0.363445,-0.373588,-0.292517,0.236867,1.742903,-0.839421
1515650853547,0.35772,-0.373347,-0.299805,0.372182,1.906361,-0.665151
1515650853557,0.350073,-0.354646,-0.299885,0.412375,1.957121,-0.507414
1515650853567,0.341873,-0.319725,-0.302441,0.396609,1.912513,-0.380271
1515650853577,0.315959,-0.271259,-0.311111,0.333205,1.846358,-0.258234
1515650853587,0.287343,-0.216165,-0.323181,0.268778,1.762068,-0.152181
1515650853597,0.300555,-0.141144,-0.334495,0.247733,1.703771,-0.076234
1515650853607,0.323558,-0.027775,-0.353175,0.274446,1.609361,-0.034602
1515650853617,0.250565,0.141736,-0.457938,0.520011,1.238315,-0.247594
1515650853627,0.203326,0.358278,-0.453618,0.519034,1.187529,-0.37668
1515650853637,0.396429,0.526169,-0.325383,0.502244,1.115637,-0.364779
1515650853647,0.399788,0.698995,-0.342442,0.51038,1.261675,-0.425838
1515650853657,0.451234,0.872896,-0.323099,0.505609,1.487246,-0.544582
1515650853668,0.517451,0.931708,-0.334903,0.567518,1.741198,-0.728755
1515650853678,0.533401,0.853342,-0.381424,0.631573,1.977242,-0.97269
1515650853688,0.553893,0.651638,-0.44634,0.645934,2.172018,-1.135239
1515650853698,0.582292,0.374675,-0.514687,0.599038,2.299053,-1.071152
1515650853708,0.594119,0.122893,-0.582897,0.543843,2.371348,-0.777475
1515650853718,0.584173,-0.039806,-0.646552,0.571351,2.432688,-0.385936
1515650853728,0.569016,-0.113261,-0.700547,0.769381,2.534094,0.022969
1515650853738,0.552959,-0.11929,-0.72841,1.137928,2.674707,0.406545
1515650853748,0.54218,-0.092438,-0.713754,1.591294,2.788028,0.727887
1515650853758,0.513932,-0.044121,-0.656289,1.97684,2.892979,0.968407
1515650853768,0.468808,-0.002136,-0.576493,2.172719,2.98377,1.141441
1515650853778,0.406992,0.002955,-0.506717,2.170497,3.041047,1.255594
1515650853788,0.354948,-0.023584,-0.479887,2.029453,3.098041,1.343651
1515650853798,0.327954,-0.068101,-0.489052,1.814253,3.146213,1.43737
1515650853809,0.301565,-0.141567,-0.54584,1.622391,3.187814,1.573696
1515650853819,0.293789,-0.226237,-0.635034,1.545109,3.172828,1.739486
1515650853829,0.267719,-0.275669,-0.740414,1.606908,3.038317,1.894162
1515650853839,0.243232,-0.285395,-0.832252,1.788592,2.837869,2.022793
1515650853849,0.209904,-0.304041,-0.880414,2.020218,2.573416,2.125673
1515650853859,0.160329,-0.318732,-0.893046,2.199999,2.276493,2.262973
1515650853869,0.139779,-0.285519,-0.854569,2.30783,1.934254,2.420915
1515650853879,0.127673,-0.225852,-0.790497,2.39018,1.605206,2.496759
1515650853889,0.101279,-0.165371,-0.682319,2.413056,1.325693,2.486337
1515650853899,0.063763,-0.098558,-0.539819,2.269472,1.08128,2.427484
1515650853909,0.015811,-0.032266,-0.380348,1.96354,0.931822,2.351058
1515650853919,-0.010245,0.024936,-0.247778,1.5694,0.898779,2.295141
1515650853929,-0.011471,0.067062,-0.184918,1.17417,0.886799,2.311787
1515650853940,-0.015257,0.083035,-0.177395,0.865797,0.899371,2.398478
1515650853950,-0.027124,0.101479,-0.209585,0.681429,0.905681,2.526276
1515650853960,-0.040779,0.150687,-0.265587,0.59144,0.878096,2.632371
1515650853970,-0.071024,0.221374,-0.308978,0.601025,0.858738,2.652635
1515650853980,-0.112528,0.293108,-0.341367,0.676275,0.847517,2.585077
1515650853990,-0.165854,0.329613,-0.358289,0.761097,0.815071,2.482286
1515650854000,-0.198676,0.339594,-0.362692,0.813156,0.743945,2.38182
1515650854010,-0.214135,0.347546,-0.360379,0.792267,0.59758,2.286027
1515650854020,-0.220525,0.362448,-0.361517,0.71757,0.348114,2.207669
1515650854030,-0.218336,0.386579,-0.354282,0.630201,0.078268,2.126191
1515650854040,-0.215992,0.387026,-0.322563,0.563864,-0.117684,2.063746
1515650854050,-0.213549,0.372114,-0.280267,0.539687,-0.207637,2.040479
1515650854060,-0.213085,0.354874,-0.23143,0.524901,-0.230186,2.04164
1515650854071,-0.221562,0.351539,-0.197094,0.514264,-0.213044,2.035259
1515650854081,-0.224076,0.371275,-0.178355,0.511043,-0.19582,2.017104
1515650854091,-0.198652,0.425966,-0.164848,0.516335,-0.191572,2.02775
1515650854101,-0.162032,0.534137,-0.149509,0.496341,-0.25073,2.062066
1515650854111,-0.141448,0.682903,-0.121048,0.455105,-0.293609,2.042015
1515650854121,-0.182013,0.811032,-0.090844,0.437029,-0.282209,1.893712
1515650854131,-0.275366,0.861524,-0.073982,0.487622,-0.189645,1.624398
1515650854141,-0.368403,0.843616,-0.067763,0.604782,-0.021355,1.249032
1515650854151,-0.448425,0.795818,-0.056556,0.738827,0.169847,0.800984
1515650854161,-0.498731,0.7095,-0.046774,0.843287,0.328498,0.417149
1515650854171,-0.509281,0.584898,-0.026432,0.904345,0.482077,0.164792
1515650854181,-0.485099,0.505859,0.001822,0.94118,0.579343,0.018283
1515650854191,-0.424981,0.5108,0.014802,0.973825,0.659274,-0.091898
1515650854202,-0.36092,0.542322,0.020722,1.024539,0.714644,-0.207463
1515650854212,-0.315575,0.562235,0.023112,1.1388,0.784165,-0.32972
1515650854222,-0.275118,0.598344,0.02285,1.354757,0.864889,-0.488719
1515650854232,-0.266948,0.615992,0.030626,1.613107,0.939466,-0.678843
1515650854242,-0.280627,0.580705,0.057824,1.869262,1.049378,-0.865804
1515650854252,-0.296161,0.523538,0.092111,2.11692,1.168798,-1.031389
1515650854262,-0.302279,0.460393,0.127793,2.32648,1.26659,-1.1797
1515650854272,-0.307368,0.384864,0.163943,2.44506,1.299713,-1.305133
1515650854282,-0.315411,0.300124,0.197017,2.437775,1.231526,-1.386137
1515650854292,-0.32977,0.207197,0.229299,2.280261,1.059766,-1.413002
1515650854302,-0.336059,0.128106,0.259257,1.988294,0.834915,-1.401866
1515650854312,-0.336147,0.062813,0.266289,1.58623,0.562532,-1.378461
1515650854322,-0.349554,0.026998,0.253362,1.146109,0.248364,-1.37726
1515650854332,-0.35095,0.022208,0.230126,0.721895,-0.073221,-1.383586
1515650854343,-0.348764,0.032298,0.191821,0.359132,-0.394428,-1.4286
1515650854353,-0.35314,0.051784,0.15585,0.071484,-0.664861,-1.512425
1515650854363,-0.359432,0.074186,0.120952,-0.12098,-0.855549,-1.631978
1515650854373,-0.37344,0.081178,0.088562,-0.220348,-0.978372,-1.769093
1515650854383,-0.372166,0.068673,0.05938,-0.22239,-1.024939,-1.885372
1515650854393,-0.350807,0.06405,0.041981,-0.141933,-0.998588,-1.964736
1515650854403,-0.321319,0.074819,0.052829,-0.019212,-0.913365,-2.00806
1515650854413,-0.274374,0.106567,0.071304,0.121443,-0.791655,-2.052576
1515650854423,-0.224004,0.150981,0.095058,0.237652,-0.638835,-2.119445
1515650854433,-0.173337,0.205504,0.121976,0.304028,-0.477446,-2.215995
1515650854443,-0.109559,0.250391,0.128441,0.295157,-0.314066,-2.327169
1515650854453,-0.041659,0.260892,0.117888,0.232357,-0.200187,-2.427378
1515650854463,0.023634,0.249448,0.08091,0.143243,-0.165719,-2.517765
1515650854474,0.071816,0.2091,0.042142,0.023514,-0.181709,-2.605827
1515650854484,0.116045,0.148696,-0.000066,-0.172468,-0.213082,-2.662594
1515650854494,0.175923,0.080587,-0.055988,-0.384176,-0.315477,-2.666899
1515650854504,0.241199,0.009133,-0.142612,-0.558657,-0.474788,-2.62219
1515650854514,0.296499,-0.049802,-0.222623,-0.683299,-0.643821,-2.531785
1515650854524,0.351337,-0.097616,-0.285239,-0.747507,-0.820523,-2.37118
1515650854534,0.40183,-0.127593,-0.335076,-0.740785,-0.959811,-2.151152
1515650854544,0.42942,-0.1339,-0.364574,-0.659999,-1.04436,-1.905897
1515650854554,0.442279,-0.114665,-0.377022,-0.494598,-1.059004,-1.663219
1515650854564,0.462241,-0.077933,-0.380107,-0.250902,-1.026037,-1.467896
1515650854574,0.468213,-0.027612,-0.367916,0.025632,-0.994713,-1.35277
1515650854584,0.461017,0.031289,-0.337558,0.278855,-0.974728,-1.34107
1515650854594,0.439228,0.055714,-0.296643,0.464313,-0.988811,-1.41336
1515650854605,0.411714,-0.001339,-0.246462,0.546074,-1.075806,-1.53635
1515650854615,0.400138,-0.119155,-0.196555,0.497704,-1.248218,-1.581825
1515650854625,0.486018,-0.208948,-0.146908,0.337293,-1.530053,-1.451632
1515650854635,0.553634,-0.227717,-0.100391,0.069026,-1.91198,-1.295237
1515650854645,0.562694,-0.223189,-0.042182,-0.269274,-2.260511,-1.217571
1515650854655,0.588712,-0.196051,0.018409,-0.516837,-2.447345,-1.283526
1515650854665,0.65951,-0.189219,0.032976,-0.555887,-2.530413,-1.407075
1515650854675,0.791677,-0.236137,0.021198,-0.446629,-2.580429,-1.409614
1515650854685,0.921575,-0.323086,0.045982,-0.315198,-2.57562,-1.221246
1515650854695,0.972965,-0.430923,0.093359,-0.271999,-2.427252,-0.869378
1515650854705,0.977779,-0.524482,0.152175,-0.32346,-2.105287,-0.36576
1515650854715,0.974377,-0.555759,0.178801,-0.423766,-1.737544,0.166835
1515650854725,0.945375,-0.519273,0.148015,-0.485819,-1.427041,0.599004
1515650854736,0.916305,-0.451753,0.085313,-0.475689,-1.183312,0.929546
1515650854746,0.875694,-0.375072,0.025606,-0.404038,-0.973347,1.192624
1515650854756,0.843708,-0.289059,-0.026886,-0.279424,-0.763841,1.364747
1515650854766,0.83634,-0.204128,-0.082723,-0.094385,-0.570952,1.468318
1515650854776,0.867456,-0.138676,-0.130704,0.16807,-0.405688,1.571594
1515650854786,0.914825,-0.10113,-0.156285,0.48789,-0.299401,1.719533
1515650854796,0.953122,-0.089636,-0.152362,0.805716,-0.242692,1.925179
1515650854806,0.962805,-0.098471,-0.097415,1.026107,-0.204773,2.187836
1515650854816,0.951925,-0.090358,-0.01107,1.119237,-0.121205,2.458451
1515650854826,0.903292,-0.079772,0.072267,1.076693,-0.026068,2.691202
1515650854836,0.849388,-0.072576,0.12987,0.968485,0.049734,2.894373
1515650854846,0.798374,-0.04084,0.150849,0.86983,0.115005,3.066561
1515650854856,0.730296,-0.006451,0.145096,0.869755,0.166662,3.235144
1515650854866,0.67366,0.010023,0.132154,0.975537,0.272996,3.459781
1515650854877,0.593018,0.043472,0.185712,1.150751,0.603606,3.655019
1515650854887,0.530774,0.084689,0.178073,1.352731,0.797791,3.723294
1515650854897,0.506486,0.120893,0.143993,1.508699,0.711441,3.730208
1515650854907,0.489289,0.148042,0.168084,1.490285,0.415706,3.725321
1515650854917,0.477674,0.174065,0.230448,1.251724,0.002451,3.736464
1515650854927,0.439193,0.206207,0.31005,0.828928,-0.476703,3.746337
1515650854937,0.395272,0.244238,0.393428,0.299114,-0.9564,3.800434
1515650854947,0.34957,0.286138,0.480979,-0.199176,-1.312994,3.894805
1515650854957,0.277401,0.316744,0.539353,-0.54102,-1.501727,3.938129
1515650854967,0.190637,0.357707,0.568742,-0.700984,-1.525652,3.913223
1515650854977,0.102755,0.385636,0.588756,-0.729879,-1.402352,3.877968
1515650854987,0.013328,0.387341,0.602513,-0.665665,-1.214542,3.85291
1515650854997,-0.063033,0.401118,0.612138,-0.550696,-0.975258,3.848917
1515650855008,-0.116603,0.445224,0.625311,-0.419969,-0.677932,3.817033
1515650855018,-0.152063,0.524146,0.626056,-0.297694,-0.396479,3.740374
1515650855028,-0.186791,0.60705,0.63007,-0.217758,-0.137578,3.648979
1515650855038,-0.205937,0.683299,0.627689,-0.193881,0.073004,3.545076
1515650855048,-0.226667,0.749448,0.608636,-0.221586,0.129193,3.433049
1515650855058,-0.26734,0.811099,0.600661,-0.318932,0.051316,3.30761
1515650855068,-0.332406,0.880942,0.616808,-0.504193,-0.05115,3.118536
1515650855078,-0.406327,0.933819,0.631994,-0.723357,-0.163045,2.86664
1515650855088,-0.491594,0.954163,0.632098,-0.895891,-0.280971,2.563315
1515650855098,-0.597507,0.93496,0.626119,-0.980552,-0.365372,2.24997
1515650855108,-0.648538,0.930794,0.629389,-0.966729,-0.41847,1.948975
1515650855118,-0.656676,1.012813,0.660614,-0.96259,-0.411353,1.598844
1515650855128,-0.698641,1.092141,0.71626,-1.040289,-0.303393,1.173152
1515650855139,-0.754696,1.11491,0.757196,-1.201885,-0.119383,0.700758
1515650855149,-0.820163,1.077806,0.756395,-1.39432,0.107651,0.17614
1515650855159,-0.87974,0.997265,0.715078,-1.590998,0.338856,-0.328185
1515650855169,-0.87754,0.925843,0.648694,-1.770658,0.554495,-0.708745
1515650855179,-0.774845,0.892865,0.544392,-1.910781,0.640876,-0.92707
1515650855189,-0.641506,0.891779,0.440892,-2.018788,0.594955,-1.021549
1515650855199,-0.543719,0.913781,0.368921,-2.101367,0.557383,-1.056374
1515650855209,-0.467777,0.934065,0.319636,-2.088768,0.604769,-1.098114
1515650855219,-0.420857,0.96575,0.293621,-1.897291,0.739751,-1.195165
1515650855229,-0.413498,0.997275,0.291933,-1.583034,0.928086,-1.389939
1515650855239,-0.413515,1.003074,0.309631,-1.236133,1.199459,-1.673551
1515650855249,-0.392037,0.969166,0.332655,-0.912629,1.503165,-2.009408
1515650855259,-0.364957,0.879173,0.348069,-0.681189,1.751819,-2.318115
1515650855270,-0.322517,0.757542,0.354901,-0.590489,1.918323,-2.566344
1515650855280,-0.253667,0.635045,0.339682,-0.657366,1.950162,-2.760364
1515650855290,-0.160638,0.520911,0.295649,-0.836184,1.816358,-2.891788
1515650855300,-0.069961,0.402738,0.231758,-1.078158,1.499886,-2.954402
1515650855310,0.003222,0.292303,0.176698,-1.390871,1.07571,-2.946135
1515650855320,0.063089,0.220876,0.14079,-1.748182,0.697207,-2.885429
1515650855330,0.110547,0.168001,0.105024,-2.048417,0.383214,-2.835721
1515650855340,0.16481,0.124157,0.045786,-2.242787,0.111495,-2.820674
1515650855350,0.215557,0.089627,-0.013085,-2.430804,-0.162156,-2.844078
1515650855360,0.284944,0.069794,-0.063947,-2.67923,-0.43173,-2.861893
1515650855370,0.34865,0.051749,-0.133618,-2.978536,-0.691921,-2.858155
1515650855380,0.379722,0.020591,-0.212027,-3.35518,-0.959893,-2.844471
1515650855390,0.382147,-0.011252,-0.276392,-3.79121,-1.203567,-2.797477
1515650855400,0.355088,-0.016224,-0.361299,-4.096796,-1.488883,-2.700817
1515650855411,0.299393,-0.012993,-0.462638,-4.238411,-1.652514,-2.629558
1515650855421,0.216665,-0.005657,-0.557903,-4.160046,-1.631836,-2.646997
1515650855431,0.117397,-0.008378,-0.646011,-3.828793,-1.44837,-2.714818
1515650855441,0.022913,-0.035835,-0.71764,-3.344194,-1.132408,-2.833628
1515650855451,-0.028332,-0.044772,-0.762351,-2.845812,-0.819646,-2.947155
1515650855461,-0.011579,-0.012323,-0.785164,-2.389755,-0.529746,-3.013508
1515650855471,0.04557,0.042071,-0.794892,-1.977098,-0.263414,-3.106329
1515650855481,0.133662,0.076681,-0.799604,-1.571699,-0.069884,-3.213974
1515650855491,0.231877,0.114929,-0.778924,-1.198016,0.08522,-3.369467
1515650855501,0.339517,0.159485,-0.731991,-0.882653,0.251161,-3.584502
1515650855511,0.464503,0.141197,-0.686977,-0.629788,0.407249,-3.794986
1515650855521,0.628135,0.059268,-0.655905,-0.431787,0.468319,-3.890905
1515650855531,0.891315,0.002338,-0.626684,-0.301125,0.339398,-3.741862
1515650855542,1.212253,0.033942,-0.58547,-0.190252,0.069496,-3.478352
1515650855552,1.465646,0.076292,-0.507929,-0.156015,-0.047432,-3.213644
1515650855562,1.622034,0.039689,-0.414438,-0.119018,0.01181,-3.039891
1515650855572,1.770242,-0.074396,-0.35818,-0.004784,0.12486,-2.867604
1515650855582,1.93339,-0.291144,-0.345819,0.068279,0.191673,-2.471998
1515650855592,2.022376,-0.549092,-0.366694,-0.059895,0.246622,-1.752096
1515650855602,1.959479,-0.744548,-0.404452,-0.436983,0.2782,-0.79201
1515650855612,1.796256,-0.813333,-0.478465,-0.842591,0.274102,0.215206
1515650855622,1.60057,-0.724678,-0.613601,-1.01081,0.241625,1.039989
1515650855632,1.395572,-0.533708,-0.752643,-0.837688,0.121684,1.562418
1515650855642,1.198329,-0.366103,-0.858931,-0.361309,-0.112735,1.80511
1515650855652,1.019885,-0.258998,-0.901155,0.319794,-0.462324,1.847477
1515650855662,0.884518,-0.203859,-0.847209,1.095183,-0.804922,1.833922
1515650855673,0.793008,-0.184301,-0.700853,1.798227,-1.016084,1.846128
1515650855683,0.751773,-0.198229,-0.495018,2.287886,-1.048146,1.909188
1515650855693,0.722902,-0.222024,-0.280422,2.438149,-0.938047,2.05037
1515650855703,0.699807,-0.243727,-0.072322,2.348833,-0.78179,2.24482
1515650855713,0.664011,-0.289411,0.096756,2.117398,-0.567244,2.481434
1515650855723,0.620526,-0.307076,0.227873,1.793465,-0.214781,2.721471
1515650855733,0.57199,-0.323,0.26761,1.496235,0.042423,2.958311
1515650855743,0.522621,-0.320243,0.238556,1.318773,0.289264,3.196787
1515650855753,0.453533,-0.287215,0.231938,1.302226,0.604173,3.417413
1515650855763,0.434404,-0.231351,0.103903,1.329448,0.769486,3.584669
1515650855773,0.371051,-0.147627,0.054806,1.400219,0.882724,3.693099
1515650855783,0.32994,-0.112118,0.009221,1.511476,0.899605,3.812151
1515650855793,0.272446,-0.063752,-0.000382,1.57417,0.831876,3.896291
1515650855804,0.22955,0.005448,0.023766,1.541595,0.714723,3.951013
1515650855814,0.184322,0.086338,0.048909,1.400082,0.498914,3.958291
1515650855824,0.136979,0.179744,0.088803,1.167498,0.249888,3.911564
1515650855834,0.089097,0.264146,0.125259,0.900962,0.014906,3.821203
1515650855844,0.049455,0.334321,0.145774,0.651408,-0.233878,3.715841
1515650855854,0.01945,0.386161,0.154696,0.460116,-0.472838,3.609149
1515650855864,-0.002547,0.436885,0.164946,0.32594,-0.665514,3.493618
1515650855874,-0.030198,0.490623,0.188071,0.2244,-0.761713,3.387434
1515650855884,-0.069556,0.520686,0.210098,0.156578,-0.770036,3.297005
1515650855894,-0.114467,0.542795,0.224247,0.13841,-0.710787,3.221228
1515650855904,-0.168156,0.578937,0.24017,0.145616,-0.625672,3.130363
1515650855914,-0.225848,0.618726,0.246546,0.177151,-0.520088,3.031889
1515650855924,-0.289764,0.638369,0.242447,0.246841,-0.418714,2.940737
1515650855934,-0.353693,0.663151,0.247247,0.339867,-0.330025,2.829223
1515650855945,-0.418822,0.711127,0.270509,0.439249,-0.245368,2.670719
1515650855955,-0.489119,0.765752,0.306244,0.514231,-0.154052,2.451468
1515650855965,-0.562799,0.812091,0.352287,0.552113,-0.064677,2.169403
1515650855975,-0.641597,0.834448,0.398598,0.541129,0.072997,1.840523
1515650855985,-0.704473,0.816434,0.427906,0.517384,0.227926,1.481788
1515650855995,-0.767718,0.766878,0.442473,0.460877,0.344115,1.137118
1515650856005,-0.78438,0.723725,0.460024,0.373728,0.431871,0.889746
1515650856015,-0.718488,0.782761,0.476261,0.232737,0.434607,0.686471
1515650856025,-0.667052,0.912646,0.492661,-0.02361,0.364421,0.42721
1515650856035,-0.668907,1.003154,0.504703,-0.396531,0.293041,0.122552
1515650856045,-0.704,1.046547,0.487026,-0.836325,0.264678,-0.254458
1515650856055,-0.74481,1.058925,0.429622,-1.263499,0.272045,-0.698811
1515650856065,-0.758724,1.062729,0.340988,-1.581595,0.306701,-1.178889
1515650856076,-0.713835,1.096116,0.237563,-1.770403,0.33646,-1.673389
1515650856086,-0.617035,1.161175,0.150584,-1.857494,0.371888,-2.169397
1515650856096,-0.500125,1.212307,0.08831,-1.84288,0.42145,-2.645582
1515650856106,-0.373305,1.228135,0.038941,-1.758352,0.485988,-3.075114
1515650856116,-0.227475,1.218267,-0.004206,-1.597573,0.579245,-3.41748
1515650856126,-0.057805,1.223291,-0.041806,-1.324631,0.751875,-3.710258
1515650856136,0.101974,1.235184,-0.056114,-0.974438,0.972892,-3.991686
1515650856146,0.242483,1.186366,-0.072288,-0.55535,1.190711,-4.234978
1515650856156,0.37442,1.03833,-0.093725,-0.060874,1.351488,-4.381389
1515650856166,0.488539,0.812556,-0.118341,0.46576,1.361733,-4.400728
1515650856176,0.567548,0.544167,-0.132113,0.934462,1.231771,-4.269145
1515650856186,0.597045,0.266273,-0.102327,1.241177,1.052371,-3.989506
1515650856196,0.572715,0.000432,-0.044468,1.368764,0.906012,-3.568244
1515650856207,0.511958,-0.215981,0.008123,1.318405,0.736101,-3.04266
1515650856217,0.427203,-0.348954,0.049694,1.126152,0.519714,-2.520684
1515650856227,0.328097,-0.409211,0.074699,0.843933,0.245658,-2.090045
1515650856237,0.210446,-0.432961,0.083363,0.516227,-0.07515,-1.764825
1515650856247,0.081504,-0.430535,0.088268,0.155658,-0.396818,-1.501372
1515650856257,-0.029554,-0.407256,0.082595,-0.199701,-0.688079,-1.316963
1515650856267,-0.125442,-0.377361,0.065018,-0.507536,-0.915557,-1.218232
1515650856277,-0.208371,-0.343789,0.040444,-0.714842,-1.08664,-1.195789
1515650856287,-0.267846,-0.310816,0.012405,-0.809978,-1.194994,-1.224067
1515650856297,-0.300977,-0.282375,-0.009837,-0.81942,-1.243992,-1.286942
1515650856307,-0.313531,-0.249609,-0.01895,-0.772944,-1.187633,-1.388613
1515650856317,-0.294092,-0.213653,-0.024094,-0.677898,-1.060123,-1.549284
1515650856327,-0.243905,-0.176119,-0.035239,-0.57439,-0.929176,-1.749492
1515650856338,-0.162996,-0.165956,-0.032823,-0.541883,-0.793224,-1.921654
1515650856348,-0.065276,-0.187703,-0.029511,-0.615228,-0.700889,-2.004712
1515650856358,0.043605,-0.223524,-0.04822,-0.802715,-0.732626,-1.983592
1515650856368,0.168113,-0.260932,-0.11118,-1.065075,-0.918209,-1.879771
1515650856378,0.297042,-0.26394,-0.186569,-1.355929,-1.152309,-1.732003
1515650856388,0.405319,-0.243638,-0.266988,-1.651934,-1.449728,-1.565989
1515650856398,0.488942,-0.246823,-0.361873,-1.897998,-1.807031,-1.392643
1515650856408,0.510751,-0.253913,-0.445117,-2.090035,-2.15978,-1.24088
1515650856418,0.509503,-0.221985,-0.498971,-2.204899,-2.434947,-1.131169
1515650856428,0.496312,-0.184873,-0.542343,-2.22461,-2.620534,-1.095629
1515650856438,0.472835,-0.177551,-0.586161,-2.135302,-2.752063,-1.092642
1515650856448,0.468143,-0.20683,-0.630162,-2.014221,-2.870873,-1.042843
1515650856458,0.466928,-0.258698,-0.648217,-1.912117,-3.026461,-0.934212
1515650856468,0.476071,-0.289001,-0.664209,-1.85431,-3.275421,-0.819936
1515650856479,0.488966,-0.282989,-0.667744,-1.878013,-3.569354,-0.75969
1515650856489,0.478103,-0.245535,-0.634368,-1.933623,-3.816999,-0.762344
1515650856499,0.46995,-0.207304,-0.592036,-1.924957,-3.907716,-0.82738
1515650856509,0.485651,-0.203482,-0.557625,-1.808621,-3.817864,-0.943267
1515650856519,0.496526,-0.264206,-0.52691,-1.59405,-3.576056,-0.963701
1515650856529,0.520517,-0.322372,-0.484494,-1.315138,-3.185855,-0.839428
1515650856539,0.565698,-0.287431,-0.438885,-1.000451,-2.67176,-0.616194
1515650856549,0.578176,-0.180595,-0.378738,-0.637652,-1.882847,-0.472499
1515650856559,0.568426,-0.065097,-0.336704,-0.100685,-0.803537,-0.449455
1515650856569,0.64823,0.08131,-0.336439,0.655207,0.45491,-0.552458
1515650856579,0.766611,0.189605,-0.362075,1.584775,1.757064,-0.721373
1515650856589,0.892197,0.165585,-0.414423,2.583744,2.837081,-0.777157
1515650856599,1.036535,0.040747,-0.453853,3.475541,3.537159,-0.549147
1515650856610,1.152051,-0.107012,-0.450398,4.085412,3.819205,-0.022679
1515650856620,1.186285,-0.204489,-0.392155,4.303957,3.775934,0.621144
1515650856630,1.152054,-0.21791,-0.301178,4.131059,3.441389,1.21577
1515650856640,1.069627,-0.150996,-0.19812,3.630153,2.867774,1.643451
1515650856650,0.947955,-0.043529,-0.102752,2.932371,2.175573,1.885325
1515650856660,0.806985,0.057359,-0.013483,2.176202,1.515009,1.979036
1515650856670,0.667117,0.103063,0.054601,1.546775,1.035097,2.01648
1515650856680,0.558303,0.087982,0.092423,1.148941,0.769049,2.061207
1515650856690,0.471627,0.04668,0.101796,0.923445,0.681175,2.144469
1515650856700,0.402772,0.015761,0.112233,0.803614,0.731703,2.252724
1515650856710,0.34455,0.001575,0.110094,0.766213,0.885227,2.381846
1515650856720,0.304783,-0.016275,0.093728,0.812391,1.101026,2.534017
1515650856730,0.274441,-0.036083,0.077061,0.931631,1.34479,2.708254
1515650856741,0.248014,-0.044227,0.049556,1.032165,1.422474,2.874243
1515650856751,0.201089,-0.044125,0.059747,0.978052,1.467726,3.005706
1515650856761,0.13689,-0.045971,0.045831,0.939085,1.376839,3.160756
1515650856771,0.076864,-0.048188,0.021026,0.888516,1.25718,3.277467
1515650856781,0.005749,-0.004144,0.01755,0.760714,1.071369,3.293188
1515650856791,-0.088387,0.059581,0.03699,0.566307,0.809612,3.244179
1515650856801,-0.170216,0.103113,0.04054,0.38692,0.46229,3.174934
1515650856811,-0.241008,0.12055,0.037657,0.253106,0.113991,3.114033
1515650856821,-0.278837,0.132192,0.040677,0.143775,-0.283528,3.055221
1515650856831,-0.320188,0.18097,0.059816,0.049302,-0.689649,3.011303
1515650856841,-0.369299,0.237233,0.118401,-0.063273,-1.056176,2.966342
1515650856851,-0.439912,0.305878,0.188453,-0.182332,-1.369069,2.904266
1515650856861,-0.526585,0.353051,0.250943,-0.267681,-1.592945,2.844071
1515650856872,-0.616281,0.394503,0.321833,-0.321499,-1.704043,2.74624
1515650856882,-0.713543,0.450719,0.387621,-0.326815,-1.717034,2.555219
1515650856892,-0.819131,0.485242,0.449602,-0.30163,-1.632196,2.31591
1515650856902,-0.887936,0.529228,0.49511,-0.220333,-1.522583,2.083799
1515650856912,-0.925173,0.584983,0.538998,-0.163346,-1.438912,1.882782
1515650856922,-0.972628,0.64872,0.616561,-0.247271,-1.362303,1.724006
1515650856932,-0.999685,0.755095,0.710675,-0.441534,-1.228096,1.550683
1515650856942,-1.005463,0.896124,0.777702,-0.657108,-1.053709,1.256783
1515650856952,-1.000818,1.041322,0.817837,-0.861261,-0.791705,0.802618
1515650856962,-0.950821,1.158725,0.840244,-1.104596,-0.548787,0.284605
1515650856972,-0.897161,1.189417,0.842586,-1.486567,-0.381528,-0.183625
1515650856982,-0.8704,1.129475,0.846087,-2.017879,-0.23457,-0.53805
1515650856992,-0.854165,1.069278,0.827685,-2.62331,-0.110526,-0.853703
1515650857002,-0.816384,1.080404,0.737691,-3.165254,0.051448,-1.217709
1515650857013,-0.781223,1.105875,0.591619,-3.49002,0.226389,-1.688328
1515650857023,-0.745643,1.136604,0.4007,-3.543338,0.311736,-2.291282
1515650857033,-0.707965,1.126224,0.22678,-3.368675,0.328204,-2.910067
1515650857043,-0.575011,1.087485,0.139652,-3.037097,0.330162,-3.31816
1515650857053,-0.246861,1.164941,0.135782,-2.693677,0.278305,-3.45512
1515650857063,0.135087,1.284216,0.151324,-2.571476,0.140906,-3.32952
1515650857073,0.420408,1.314885,0.101443,-2.781801,-0.074374,-3.040157
1515650857083,0.561226,1.213136,-0.015656,-3.176387,-0.335668,-2.658154
1515650857093,0.603659,1.075065,-0.152169,-3.629339,-0.551434,-2.20231
1515650857103,0.582666,1.003698,-0.284547,-3.987146,-0.671342,-1.790752
1515650857113,0.495153,1.031093,-0.437715,-4.121664,-0.672952,-1.548945
1515650857123,0.395035,1.060876,-0.60978,-3.974548,-0.596306,-1.576351
1515650857133,0.366508,1.050245,-0.767415,-3.538119,-0.543772,-1.751197
1515650857144,0.359041,1.020261,-0.886956,-2.833433,-0.563192,-1.945246
1515650857154,0.391383,0.910577,-0.948551,-1.914442,-0.692447,-2.114452
1515650857164,0.39227,0.803138,-0.939214,-0.89149,-0.867614,-2.253093
1515650857174,0.380302,0.658971,-0.830401,0.084918,-1.078373,-2.372276
1515650857184,0.360456,0.481724,-0.661562,0.76778,-1.27739,-2.444322
1515650857194,0.321611,0.322611,-0.46113,1.055425,-1.489666,-2.458093
1515650857204,0.30387,0.184942,-0.291476,0.995464,-1.688019,-2.465058
1515650857214,0.291934,0.055351,-0.180053,0.634621,-1.917198,-2.486713
1515650857224,0.261557,-0.084947,-0.115067,0.070332,-2.151329,-2.496819
1515650857234,0.226228,-0.218752,-0.092999,-0.547975,-2.394295,-2.486403
1515650857244,0.180699,-0.343796,-0.112738,-1.10366,-2.675974,-2.410028
1515650857254,0.139388,-0.442426,-0.1476,-1.531152,-2.936215,-2.258443
1515650857264,0.09093,-0.500153,-0.182492,-1.828548,-3.080652,-2.047786
1515650857275,0.045351,-0.513923,-0.210654,-1.972712,-3.039173,-1.858294
1515650857285,0.018625,-0.480638,-0.240086,-1.974042,-2.906824,-1.758122
1515650857295,0.027144,-0.443031,-0.286506,-1.847167,-2.775864,-1.732143
1515650857305,0.068429,-0.415914,-0.332452,-1.627914,-2.728222,-1.701115
1515650857315,0.126212,-0.398137,-0.350644,-1.413811,-2.737784,-1.588873
1515650857325,0.178823,-0.367048,-0.335325,-1.34274,-2.756417,-1.462134
1515650857335,0.209134,-0.320773,-0.313411,-1.430619,-2.781702,-1.385943
1515650857345,0.235098,-0.257189,-0.305522,-1.631832,-2.83493,-1.360468
1515650857355,0.270862,-0.174714,-0.320721,-1.824716,-2.82686,-1.375666
1515650857365,0.292535,-0.096186,-0.349702,-1.910666,-2.781763,-1.446873
1515650857375,0.321363,-0.012638,-0.382893,-1.853697,-2.682368,-1.57853
1515650857385,0.359352,0.084946,-0.425137,-1.671865,-2.511517,-1.784456
1515650857395,0.395328,0.14663,-0.458398,-1.378933,-2.270449,-2.03898
1515650857405,0.447969,0.14246,-0.480677,-0.984384,-1.979818,-2.288659
1515650857416,0.526097,0.10268,-0.494297,-0.525197,-1.684818,-2.516208
1515650857426,0.617352,0.047804,-0.491569,-0.051129,-1.402938,-2.681897
1515650857436,0.766019,-0.002552,-0.486461,0.446406,-1.177324,-2.72273
1515650857446,0.916799,-0.067843,-0.514734,1.02691,-1.0775,-2.626065
1515650857456,1.060183,-0.109393,-0.561311,1.74133,-1.145881,-2.449708
1515650857466,1.187634,-0.006448,-0.639605,2.587825,-1.53442,-2.446432
1515650857476,1.199579,0.132614,-0.717753,3.487709,-2.125378,-2.640596
1515650857486,1.177088,0.127261,-0.685473,4.168387,-2.76601,-2.67365
1515650857496,1.16246,0.107874,-0.499889,4.241063,-3.48096,-2.348578
1515650857506,1.047402,0.071555,-0.189289,3.616825,-4.340118,-1.883727
1515650857516,1.014466,0.026926,0.06813,2.802837,-5.182095,-1.540835
1515650857526,1.119427,0.010346,0.194722,2.070897,-5.759929,-1.264804
1515650857536,1.206556,-0.038208,0.356107,1.349833,-5.984383,-0.946565
1515650857547,1.210109,-0.151084,0.547602,0.641815,-5.875896,-0.567959
1515650857557,1.175064,-0.260003,0.670992,0.103196,-5.221803,-0.141658
1515650857567,1.098617,-0.34949,0.664574,-0.145008,-4.124256,0.264702
1515650857577,0.980258,-0.434277,0.574311,-0.063895,-2.914457,0.702605
1515650857587,0.877654,-0.461149,0.453878,0.198699,-1.831468,1.112142
1515650857597,0.810806,-0.391695,0.352306,0.452046,-0.886322,1.442902
1515650857607,0.748721,-0.29192,0.292543,0.609511,-0.203203,1.622835
1515650857617,0.727181,-0.229779,0.289655,0.603187,0.262495,1.690591
1515650857627,0.775844,-0.178455,0.321625,0.441317,0.623969,1.724983
1515650857637,0.833767,-0.181345,0.38636,0.184092,0.977661,1.758727
1515650857647,0.870707,-0.242354,0.469106,-0.114739,1.459575,1.836253
1515650857657,0.911066,-0.338089,0.570606,-0.428787,2.125144,2.029958
1515650857667,0.930762,-0.449799,0.69433,-0.823655,2.932311,2.355116
1515650857678,0.921086,-0.528915,0.821232,-1.281582,3.98235,2.709062
1515650857688,0.932233,-0.520034,0.928797,-1.678929,5.424772,3.048382
1515650857698,0.982927,-0.376875,0.932649,-1.920709,6.938284,3.190549
1515650857708,1.052705,-0.05748,0.706976,-1.91622,8.23014,3.026669
1515650857718,1.155917,0.201486,0.254468,-1.616768,8.866834,2.71932
1515650857728,1.165142,0.22484,-0.297402,-1.082678,8.350554,2.369719
1515650857738,1.063228,0.072607,-0.743206,-0.562248,6.841815,2.082259
1515650857748,0.914469,-0.115002,-0.985294,-0.423994,4.714961,1.979726
1515650857758,0.78828,-0.210239,-1.003353,-0.712553,2.989126,2.200867
1515650857768,0.781085,-0.313924,-0.884377,-1.194947,1.22928,2.465573
1515650857778,0.799388,-0.317072,-0.766003,-1.462782,-0.271141,2.829373
1515650857788,0.730587,-0.292605,-0.648195,-1.411624,-1.299708,3.295825
1515650857798,0.642102,-0.257507,-0.439644,-1.145753,-1.681297,3.705045
1515650857809,0.556877,-0.126474,-0.157366,-0.779485,-1.482299,3.980757
1515650857819,0.432336,0.04309,0.073386,-0.389879,-0.837779,4.09143
1515650857829,0.288004,0.143327,0.251395,-0.118437,0.038313,4.100912
1515650857839,0.18478,0.208361,0.344649,0.031056,0.94951,4.087392
1515650857849,0.092619,0.256876,0.340238,0.105541,1.758655,4.08286
1515650857859,0.045965,0.307896,0.279617,0.1423,2.376066,4.046706
1515650857869,0.034903,0.380527,0.173112,0.162615,2.763141,3.998103
1515650857879,0.045764,0.431502,0.044344,0.138081,2.837953,4.020529
1515650857889,0.054542,0.487517,-0.063659,-0.00025,2.627184,4.092901
1515650857899,0.03849,0.558243,-0.13291,-0.230288,2.198721,4.150991
1515650857909,0.018689,0.655077,-0.175174,-0.450571,1.66568,4.131246
1515650857919,-0.020924,0.772671,-0.194716,-0.660186,1.087192,3.993038
1515650857929,-0.100407,0.862272,-0.190411,-0.899523,0.518815,3.742869
1515650857939,-0.218619,0.909419,-0.170057,-1.142151,-0.0084,3.400866
1515650857950,-0.354698,0.903624,-0.147316,-1.330855,-0.480875,3.071372
1515650857960,-0.396359,0.90609,-0.105883,-1.430745,-0.850873,2.870525
1515650857970,-0.386097,1.00106,-0.032772,-1.518132,-1.126529,2.665239
1515650857980,-0.433753,1.092269,0.05608,-1.692658,-1.296177,2.419629
1515650857990,-0.502702,1.152704,0.13561,-1.936284,-1.372583,2.126167
1515650858000,-0.601433,1.165359,0.175579,-2.185426,-1.362776,1.729082
1515650858010,-0.714539,1.136681,0.166181,-2.333968,-1.3349,1.206659
1515650858020,-0.770153,1.154323,0.1321,-2.354444,-1.250329,0.564073
1515650858030,-0.810418,1.173512,0.17771,-2.439102,-0.896986,-0.08712
1515650858040,-0.795112,1.154782,0.267545,-2.584648,-0.322279,-0.692428
1515650858050,-0.664168,1.145644,0.282909,-2.566893,0.212799,-1.202317
1515650858060,-0.497385,1.07378,0.159684,-2.264781,0.60123,-1.568073
1515650858070,-0.351654,0.977985,0.00974,-1.737661,0.847071,-1.77984
1515650858081,-0.215456,0.934746,-0.128136,-1.065901,0.876116,-1.829708
1515650858091,-0.13763,0.873962,-0.253549,-0.297358,0.751039,-1.853112
1515650858101,-0.139533,0.774789,-0.342741,0.451158,0.570519,-1.94254
1515650858111,-0.174421,0.68662,-0.349828,1.063003,0.372733,-2.089005
1515650858121,-0.228834,0.571435,-0.29981,1.498063,0.089916,-2.263425
1515650858131,-0.286853,0.440876,-0.21874,1.725563,-0.253545,-2.432615
1515650858141,-0.319644,0.31396,-0.106147,1.720883,-0.543285,-2.557116
1515650858151,-0.322115,0.190751,0.003798,1.511639,-0.807145,-2.623135
1515650858161,-0.313833,0.069858,0.077752,1.165718,-1.072812,-2.62346
1515650858171,-0.306294,-0.051274,0.133783,0.738059,-1.267305,-2.550943
1515650858181,-0.303111,-0.150771,0.17328,0.342982,-1.335568,-2.420017
1515650858191,-0.295743,-0.211334,0.17318,0.108685,-1.269559,-2.262196
1515650858201,-0.279529,-0.238346,0.147091,0.109403,-1.102045,-2.122581
1515650858212,-0.281866,-0.24805,0.110225,0.320936,-0.913257,-2.040464
1515650858222,-0.278397,-0.230535,0.070745,0.678794,-0.773919,-2.051773
1515650858232,-0.291396,-0.187874,0.042249,1.03161,-0.758475,-2.144024
1515650858242,-0.296628,-0.162912,0.038715,1.263724,-0.789405,-2.247446
1515650858252,-0.293967,-0.172388,0.068116,1.304084,-0.841265,-2.351091
1515650858262,-0.271323,-0.19205,0.127544,1.130525,-0.95072,-2.420661
1515650858272,-0.22186,-0.221959,0.172279,0.792912,-1.145475,-2.456331
1515650858282,-0.135482,-0.252069,0.194821,0.389655,-1.35992,-2.450072
1515650858292,-0.041519,-0.281002,0.194002,0.029841,-1.567007,-2.389569
1515650858302,0.051125,-0.332762,0.190016,-0.291924,-1.721832,-2.258847
1515650858312,0.131607,-0.36374,0.198548,-0.621271,-1.793558,-2.038538
1515650858322,0.186057,-0.360772,0.204683,-0.949731,-1.780998,-1.746822
1515650858332,0.239515,-0.331861,0.173828,-1.207478,-1.6386,-1.452374
1515650858343,0.284332,-0.274778,0.115401,-1.370995,-1.466736,-1.209594
1515650858353,0.299427,-0.186497,0.042419,-1.469758,-1.356421,-1.047058
1515650858363,0.29277,-0.101511,-0.032012,-1.525074,-1.25102,-0.946619
1515650858373,0.289668,-0.022829,-0.091741,-1.525371,-1.110932,-0.89343
1515650858383,0.290001,0.041968,-0.15017,-1.438795,-0.969236,-0.896112
1515650858393,0.293287,0.072287,-0.207804,-1.283252,-0.87312,-0.9556
1515650858403,0.298789,0.0793,-0.240996,-1.098029,-0.784244,-1.049365
1515650858413,0.318579,0.056129,-0.242524,-0.913872,-0.692183,-1.137793
1515650858423,0.360896,0.008795,-0.229394,-0.76567,-0.626258,-1.163059
1515650858433,0.413335,-0.038218,-0.209416,-0.670408,-0.571601,-1.109097
1515650858443,0.47061,-0.089227,-0.194972,-0.601672,-0.491785,-0.960056
1515650858453,0.559227,-0.091469,-0.172666,-0.58703,-0.379404,-0.713691
1515650858463,0.596288,-0.030547,-0.148613,-0.59153,-0.24215,-0.524915
1515650858473,0.580112,0.061271,-0.150767,-0.511432,-0.041797,-0.477475
1515650858484,0.586678,0.177692,-0.175416,-0.283119,0.209908,-0.540674
1515650858494,0.606764,0.268452,-0.195694,0.037295,0.496451,-0.659813
1515650858504,0.652236,0.302609,-0.201623,0.367262,0.774501,-0.788589
1515650858514,0.723664,0.298856,-0.188191,0.634712,1.05539,-0.879744
1515650858524,0.784716,0.231842,-0.166256,0.819545,1.328093,-0.883009
1515650858534,0.828221,0.099986,-0.156451,0.965189,1.601312,-0.798581
1515650858544,0.861635,-0.053764,-0.16717,1.024179,1.779438,-0.603723
1515650858554,0.876535,-0.198416,-0.18478,0.979586,1.850695,-0.310095
1515650858564,0.878856,-0.327501,-0.205562,0.856728,1.861311,0.06507
1515650858574,0.872325,-0.404387,-0.234999,0.722572,1.719425,0.506652
1515650858584,0.861402,-0.398827,-0.264265,0.616175,1.485424,0.959973
1515650858594,0.838839,-0.341711,-0.276335,0.572272,1.258311,1.35858
1515650858604,0.800833,-0.265942,-0.265297,0.588672,1.065062,1.662958
1515650858615,0.737777,-0.179281,-0.239551,0.602897,0.886187,1.876603
1515650858625,0.659755,-0.1118,-0.201828,0.586233,0.771828,2.025185
1515650858635,0.578997,-0.083328,-0.166244,0.523886,0.709868,2.166422
1515650858645,0.519485,-0.082134,-0.141844,0.456172,0.680949,2.338597
1515650858655,0.48724,-0.078103,-0.136876,0.408628,0.640115,2.549126
1515650858665,0.45747,-0.066418,-0.147234,0.373964,0.525419,2.754357
1515650858675,0.413377,-0.06718,-0.15635,0.324635,0.334545,2.972558
1515650858685,0.35601,-0.068733,-0.144105,0.227745,0.089943,3.194228
1515650858695,0.286792,-0.052625,-0.111713,0.078914,-0.147272,3.407566
1515650858705,0.20538,-0.021366,-0.080435,-0.080518,-0.387564,3.586802
1515650858715,0.121068,0.012486,-0.052923,-0.213513,-0.605164,3.74348
1515650858725,0.045435,0.051869,-0.007487,-0.339333,-0.720663,3.840226
1515650858735,-0.013024,0.123362,0.042336,-0.457856,-0.794905,3.832292
1515650858746,-0.048903,0.204615,0.08521,-0.558388,-0.864471,3.757023
1515650858756,-0.089426,0.260796,0.168572,-0.675168,-0.778616,3.658145
1515650858766,-0.104926,0.276457,0.30781,-0.868805,-0.434093,3.635058
1515650858776,-0.07957,0.23616,0.447006,-1.099798,0.045618,3.765664
1515650858786,-0.047487,0.196082,0.505275,-1.335912,0.465497,4.074622
1515650858796,-0.015295,0.202633,0.505619,-1.510334,0.790874,4.464555
1515650858806,-0.04453,0.286946,0.469382,-1.616796,1.044038,4.766764
1515650858816,-0.139895,0.435266,0.396993,-1.663725,1.194276,4.904469
1515650858826,-0.254481,0.600954,0.325768,-1.668026,1.217002,4.856426
1515650858836,-0.400326,0.775897,0.263776,-1.620278,1.162643,4.613995
1515650858846,-0.564725,0.930715,0.198525,-1.515456,1.152393,4.154582
1515650858856,-0.729069,0.972296,0.125529,-1.295209,1.167624,3.596444
1515650858866,-0.837646,0.941805,0.056752,-0.984802,1.14657,3.063586
1515650858877,-0.896059,0.8907,0.007118,-0.658514,1.137089,2.582947
1515650858887,-0.892085,0.840466,-0.013183,-0.40954,1.115276,2.16563
1515650858897,-0.869205,0.795593,-0.010484,-0.281082,0.972746,1.820492
1515650858907,-0.84709,0.766445,-0.001308,-0.247839,0.763363,1.503597
1515650858917,-0.812977,0.75858,0.009257,-0.250638,0.557176,1.168709
1515650858927,-0.762728,0.760413,0.029344,-0.22819,0.432576,0.816531
1515650858937,-0.733047,0.749047,0.084061,-0.130727,0.406815,0.455369
1515650858947,-0.695079,0.711148,0.138011,0.084089,0.510646,0.173598
1515650858957,-0.58004,0.689412,0.213678,0.476326,0.902355,0.06363
1515650858967,-0.347168,0.763446,0.325482,0.968404,1.677366,0.064828
1515650858977,-0.074613,0.940441,0.437029,1.321212,2.655465,0.078107
1515650858987,0.155992,1.143721,0.451555,1.408576,3.383638,-0.009636
1515650858997,0.315913,1.305862,0.367211,1.235313,3.593451,-0.29202
1515650859007,0.407938,1.344747,0.173493,0.889535,3.208249,-0.81415
