time,accel x,accel y,accel z,gyro x,gyro y,gyro z
1515649101190,0.014453,-0.061799,-0.082272,0.677314,-1.797153,-0.061996
1515649101200,-0.000029,-0.092619,-0.187156,0.792085,-1.925123,0.102053
1515649101210,-0.021101,-0.136085,-0.206007,0.8901,-1.665448,0.295574
1515649101220,-0.033918,-0.153777,-0.12997,0.978371,-1.314686,0.479419
1515649101230,-0.064367,-0.148403,-0.076436,1.007301,-0.975344,0.554655
1515649101240,-0.091244,-0.085189,0.011755,0.957811,-0.655572,0.425309
1515649101250,-0.106992,0.000878,0.086147,0.821495,-0.382458,0.14696
1515649101260,-0.105619,0.053521,0.15138,0.624965,-0.194134,-0.137429
1515649101270,-0.105676,0.067492,0.186425,0.409677,-0.133975,-0.298829
1515649101280,-0.080263,0.052951,0.184506,0.213866,-0.241536,-0.332009
1515649101290,-0.023525,0.02421,0.139915,0.069168,-0.453144,-0.309779
1515649101300,0.040752,-0.031208,0.085785,0.003979,-0.673301,-0.244119
1515649101310,0.078259,-0.079419,0.049536,-0.004041,-0.869758,-0.170189
1515649101321,0.07195,-0.087342,0.019373,0.05135,-0.992028,-0.1105
1515649101331,0.053119,-0.054536,0.018739,0.147723,-0.968066,-0.131221
1515649101341,0.040099,0.000188,0.029815,0.297952,-0.871689,-0.246191
1515649101351,0.018946,0.034347,0.044654,0.486334,-0.787526,-0.466982
1515649101361,0.006791,0.042108,0.048406,0.721552,-0.801594,-0.727343
1515649101371,0.016991,0.03955,0.02806,0.922998,-0.864567,-0.86902
1515649101381,0.034337,0.042113,0.019381,1.005909,-0.979936,-0.887378
1515649101391,0.049625,0.04052,0.016554,0.906422,-1.027724,-0.817513
1515649101401,0.082134,0.010159,0.064966,0.663538,-0.911504,-0.636231
1515649101411,0.141979,0.002192,0.105932,0.554347,-0.859771,-0.333758
1515649101421,0.191898,-0.051604,0.0924,0.592119,-0.675083,-0.178311
1515649101431,0.165279,-0.062401,0.107304,0.614171,-0.587072,-0.196661
1515649101441,0.119009,-0.052004,0.059289,0.650283,-0.629514,-0.257607
1515649101452,0.099853,-0.066513,0.017348,0.695037,-0.744877,-0.300349
1515649101462,0.090466,-0.072122,0.008633,0.720446,-1.191322,-0.135518
1515649101472,0.088604,-0.068778,-0.009903,0.652424,-1.559715,0.005062
1515649101482,0.04203,-0.075218,-0.016709,0.597156,-1.948233,0.107185
1515649101492,0.01433,-0.031499,-0.02884,0.509258,-2.449768,0.079369
1515649101502,-0.014834,-0.073323,-0.091613,0.513283,-2.845374,-0.08026
1515649101512,-0.085844,-0.112042,-0.100071,0.586605,-2.962858,-0.324858
1515649101522,-0.07723,-0.115297,-0.077441,0.666049,-2.975262,-0.582425
1515649101532,-0.036712,-0.10532,-0.068682,0.737871,-2.89153,-0.786708
1515649101542,0.006122,-0.110612,-0.05557,0.718319,-2.696858,-0.949105
1515649101552,0.084885,-0.159498,-0.033529,0.494071,-2.418279,-1.087257
1515649101562,0.253089,-0.28821,0.032424,0.215363,-1.445025,-0.911173
1515649101572,0.60927,-0.557642,0.148758,0.137462,-0.197604,-0.378708
1515649101583,0.542916,-0.617107,0.037484,0.115425,0.209142,-0.100535
1515649101593,-0.013744,-0.121266,-0.139959,0.170553,0.208797,0.0017
1515649101603,-0.116046,-0.044383,-0.116096,0.29628,0.377304,0.016967
1515649101613,0.045723,-0.198594,-0.091241,0.295122,0.404842,-0.134632
1515649101623,-0.02813,-0.145687,-0.100697,0.398978,0.377378,-0.365598
1515649101633,-0.054009,-0.128105,-0.130805,0.541989,0.380751,-0.526321
1515649101643,-0.055538,-0.142032,-0.154068,0.690329,0.378444,-0.61875
1515649101653,-0.031213,-0.10753,-0.159024,0.869398,0.383381,-0.641935
1515649101663,0.013371,-0.08207,-0.161144,1.08267,0.263776,-0.592524
1515649101673,0.047385,-0.074365,-0.168258,1.298359,0.016497,-0.505609
1515649101683,0.089408,-0.095887,-0.135026,1.481105,-0.197252,-0.501854
1515649101693,0.100766,-0.128926,-0.083262,1.59402,-0.462527,-0.52015
1515649101703,0.129498,-0.09746,-0.024727,1.622085,-0.687671,-0.47302
1515649101714,0.131698,-0.067431,0.047927,1.555596,-0.802788,-0.417088
1515649101724,0.141673,-0.067602,0.107592,1.425495,-0.905176,-0.37371
1515649101734,0.14816,-0.057644,0.130586,1.307855,-0.893926,-0.336931
1515649101744,0.145991,-0.0444,0.148376,1.208172,-0.855885,-0.290658
1515649101754,0.160524,-0.016998,0.149163,1.113014,-0.945359,-0.237838
1515649101764,0.176357,0.016586,0.150896,1.030608,-1.05086,-0.18612
1515649101774,0.176535,0.040014,0.170292,0.930079,-1.108218,-0.131183
1515649101784,0.204111,0.057953,0.195062,0.80926,-1.0919,-0.038888
1515649101794,0.226665,0.081424,0.214444,0.706463,-1.072594,0.109893
1515649101804,0.238691,0.11781,0.23381,0.61933,-0.948323,0.274488
1515649101814,0.252197,0.153054,0.256206,0.532458,-0.93979,0.444563
1515649101824,0.249258,0.177799,0.239313,0.419834,-1.267464,0.557527
1515649101834,0.229516,0.213429,0.252291,0.280283,-1.400284,0.682106
1515649101844,0.232708,0.239865,0.306923,0.150959,-1.359925,0.889686
1515649101855,0.207044,0.218267,0.334823,0.021517,-1.276224,1.000075
1515649101865,0.136497,0.130488,0.358914,-0.110206,-1.152473,0.812622
1515649101875,0.130253,0.054076,0.372296,-0.262323,-0.927337,0.477829
1515649101885,0.185573,0.067815,0.378561,-0.420885,-0.656464,0.20598
1515649101895,0.226226,0.163608,0.376201,-0.583669,-0.371617,0.136937
1515649101905,0.264475,0.276466,0.348229,-0.653986,-0.19031,0.260831
1515649101915,0.302108,0.326347,0.299626,-0.628722,-0.090663,0.489019
1515649101925,0.322907,0.328852,0.277938,-0.599038,-0.072412,0.714088
1515649101935,0.302233,0.333228,0.259973,-0.558381,-0.234608,0.821924
1515649101945,0.219336,0.336996,0.253948,-0.517596,-0.46386,0.84125
1515649101955,0.150697,0.325556,0.265409,-0.484233,-0.693049,0.843529
1515649101965,0.12395,0.322805,0.250892,-0.440306,-0.903113,0.884165
1515649101975,0.122394,0.3319,0.223381,-0.332805,-1.102644,0.999235
1515649101986,0.137157,0.356283,0.200315,-0.132961,-1.373471,1.072369
1515649101996,0.146426,0.370786,0.190084,0.119898,-1.667295,1.062051
1515649102006,0.16946,0.367929,0.189144,0.349372,-1.928002,1.057125
1515649102016,0.20312,0.37572,0.199148,0.496011,-2.101445,1.12076
1515649102026,0.20912,0.405314,0.223224,0.526833,-2.128788,1.250887
1515649102036,0.220006,0.439511,0.255397,0.46723,-1.990704,1.45484
1515649102046,0.211066,0.461676,0.29043,0.33225,-1.787587,1.678245
1515649102056,0.1618,0.473299,0.333743,0.076482,-1.598438,1.837074
1515649102066,0.113999,0.469446,0.372383,-0.236412,-1.456417,1.958847
1515649102076,0.077283,0.451998,0.348949,-0.498261,-1.393599,2.095445
1515649102086,0.015605,0.438991,0.282556,-0.674251,-1.344366,2.214617
1515649102096,-0.056031,0.440723,0.223837,-0.780402,-1.257077,2.26406
1515649102106,-0.077662,0.444847,0.165635,-0.807148,-1.139518,2.306725
1515649102117,-0.133101,0.421437,0.129426,-0.821193,-1.01853,2.314105
1515649102127,-0.204729,0.415459,0.102721,-0.850007,-0.929566,2.289562
1515649102137,-0.202385,0.402811,0.106404,-0.919119,-0.82481,2.29613
1515649102147,-0.190665,0.354174,0.118343,-1.065434,-0.781703,2.372488
1515649102157,-0.230999,0.310462,0.131658,-1.336789,-0.742053,2.422696
1515649102167,-0.287256,0.281605,0.158162,-1.649591,-0.652002,2.43886
1515649102177,-0.355099,0.24487,0.124351,-1.894437,-0.625923,2.433469
1515649102187,-0.430922,0.234602,0.050975,-2.024684,-0.672168,2.39032
1515649102197,-0.476646,0.239206,-0.024863,-2.000201,-0.728569,2.328377
1515649102207,-0.541025,0.211436,-0.12509,-1.869496,-0.906352,2.178604
1515649102217,-0.594164,0.16944,-0.213766,-1.666585,-1.158563,1.958172
1515649102227,-0.570245,0.144451,-0.264234,-1.37148,-1.40957,1.766166
1515649102237,-0.509833,0.130809,-0.286993,-1.03177,-1.695137,1.6562
1515649102248,-0.466039,0.119012,-0.281532,-0.76942,-1.973736,1.606333
1515649102258,-0.435729,0.075078,-0.223226,-0.672516,-2.18864,1.575234
1515649102268,-0.436362,0.011894,-0.156836,-0.71047,-2.28372,1.497597
1515649102278,-0.429494,-0.010554,-0.111735,-0.801709,-2.245015,1.415749
1515649102288,-0.428542,-0.015205,-0.092727,-0.920778,-2.076957,1.374416
1515649102298,-0.403216,-0.04812,-0.082574,-1.081179,-1.903821,1.36421
1515649102308,-0.368748,-0.053381,-0.097067,-1.19926,-1.699529,1.362321
1515649102318,-0.347735,-0.047944,-0.105884,-1.260191,-1.460881,1.380428
1515649102328,-0.378073,-0.041315,-0.124032,-1.273352,-1.263726,1.368498
1515649102338,-0.370816,-0.044929,-0.155824,-1.233374,-1.139089,1.321206
1515649102348,-0.35392,-0.051246,-0.171889,-1.181679,-1.043248,1.254686
1515649102358,-0.393046,-0.057541,-0.182399,-1.12253,-0.971676,1.117718
1515649102368,-0.399716,-0.065889,-0.181822,-1.065469,-0.91713,0.956233
1515649102378,-0.331868,-0.072369,-0.171464,-1.036909,-0.904763,0.856828
1515649102389,-0.251022,-0.067721,-0.171838,-1.020941,-0.939959,0.83439
1515649102399,-0.184794,-0.080737,-0.182317,-1.018788,-0.950859,0.87282
1515649102409,-0.152369,-0.124648,-0.189436,-1.08686,-0.828268,0.956209
1515649102419,-0.123256,-0.129048,-0.179407,-1.209329,-0.54631,1.060983
1515649102429,-0.084601,-0.105743,-0.178132,-1.341238,-0.302141,1.218147
1515649102439,-0.067965,-0.140633,-0.209125,-1.378387,-0.260111,1.361283
1515649102449,-0.079348,-0.21445,-0.251492,-1.298404,-0.488014,1.348418
1515649102459,-0.109146,-0.257439,-0.279674,-1.196052,-0.781625,1.205319
1515649102469,-0.106793,-0.219926,-0.280122,-1.114988,-1.026375,1.133768
1515649102479,-0.062639,-0.166792,-0.272037,-1.028658,-1.237659,1.229729
1515649102489,-0.037733,-0.170968,-0.274792,-0.967106,-1.276112,1.243388
1515649102499,-0.06842,-0.259181,-0.253822,-0.975121,-1.02163,1.125691
1515649102509,-0.076921,-0.295683,-0.199022,-0.990845,-0.639589,0.99079
1515649102520,-0.043496,-0.285527,-0.174284,-1.055321,-0.250339,0.884907
1515649102530,-0.053894,-0.275061,-0.185486,-1.170592,0.113829,0.836908
1515649102540,-0.037037,-0.288864,-0.180317,-1.28666,0.364255,0.823214
1515649102550,-0.014642,-0.316529,-0.171711,-1.371792,0.519569,0.779619
1515649102560,-0.017929,-0.352227,-0.179583,-1.399529,0.594846,0.70706
1515649102570,-0.017754,-0.384537,-0.196589,-1.356187,0.630817,0.6097
1515649102580,-0.028053,-0.392587,-0.210501,-1.315845,0.582368,0.466558
1515649102590,-0.040237,-0.373925,-0.210498,-1.250137,0.569052,0.383042
1515649102600,0.028528,-0.393995,-0.2369,-1.171677,0.544854,0.341109
1515649102610,0.022303,-0.436471,-0.254554,-1.066718,0.519624,0.307599
1515649102620,0.004724,-0.464336,-0.255934,-0.924772,0.541523,0.298427
1515649102630,-0.006794,-0.476636,-0.267927,-0.783958,0.598679,0.308425
1515649102640,-0.029104,-0.493236,-0.273177,-0.677145,0.698454,0.345203
1515649102651,-0.037925,-0.504086,-0.257579,-0.636091,0.824784,0.388635
1515649102661,-0.027718,-0.514304,-0.240993,-0.638613,1.006812,0.408699
1515649102671,-0.028314,-0.526229,-0.233515,-0.645483,1.235031,0.402039
1515649102681,-0.039764,-0.544538,-0.22663,-0.654421,1.433543,0.33565
1515649102691,-0.039861,-0.553528,-0.229821,-0.647307,1.560454,0.242594
1515649102701,-0.037734,-0.542231,-0.24684,-0.607233,1.640177,0.17828
1515649102711,-0.026675,-0.532709,-0.272233,-0.529872,1.634119,0.15021
1515649102721,-0.046025,-0.504673,-0.308696,-0.386572,1.522209,0.118784
1515649102731,-0.114653,-0.472746,-0.352409,-0.163721,1.377321,0.088125
1515649102741,-0.175132,-0.468888,-0.382464,0.082434,1.230595,0.010406
1515649102751,-0.220512,-0.462516,-0.398753,0.308485,1.068871,-0.080015
1515649102761,-0.241997,-0.451482,-0.394959,0.501641,0.929463,-0.153248
1515649102771,-0.260996,-0.410203,-0.376518,0.647021,0.835779,-0.185777
1515649102781,-0.277797,-0.349449,-0.338587,0.732933,0.801727,-0.180764
1515649102792,-0.284316,-0.302238,-0.302925,0.770101,0.772651,-0.128587
1515649102802,-0.293041,-0.264862,-0.28118,0.780875,0.70363,-0.031415
1515649102812,-0.303249,-0.231182,-0.267804,0.78432,0.593904,0.059438
1515649102822,-0.339332,-0.192762,-0.274918,0.843005,0.41818,0.097834
1515649102832,-0.42663,-0.135946,-0.314128,0.999247,0.196305,-0.003951
1515649102842,-0.543322,-0.125654,-0.35087,1.151261,-0.023699,-0.053425
1515649102852,-0.505965,-0.295672,-0.370169,1.188965,-0.303998,-0.111944
1515649102862,-0.520615,-0.259034,-0.378577,1.268579,-0.393532,-0.371547
1515649102872,-0.595477,-0.203706,-0.363533,1.28841,-0.285064,-0.625807
1515649102882,-0.547399,-0.272735,-0.353034,1.238104,-0.084817,-0.849995
1515649102892,-0.475525,-0.275772,-0.343772,1.196202,0.14556,-1.095604
1515649102902,-0.410633,-0.211133,-0.334184,1.20846,0.330805,-1.281614
1515649102912,-0.29522,-0.153136,-0.327351,1.266526,0.420247,-1.350288
1515649102923,-0.178089,-0.085031,-0.309506,1.365125,0.401147,-1.32827
1515649102933,-0.117538,-0.012345,-0.292549,1.507246,0.35091,-1.266901
1515649102943,-0.105051,0.051255,-0.279535,1.681265,0.252621,-1.218421
1515649102953,-0.13559,0.114447,-0.265107,1.857469,0.121323,-1.209403
1515649102963,-0.193362,0.164037,-0.249461,2.038911,0.010674,-1.255937
1515649102973,-0.248905,0.207504,-0.232208,2.190495,-0.020606,-1.337665
1515649102983,-0.275753,0.250301,-0.19169,2.280449,0.022953,-1.424562
1515649102993,-0.281162,0.288419,-0.137875,2.292948,0.113313,-1.48984
1515649103003,-0.265137,0.323818,-0.085129,2.253489,0.219528,-1.543174
1515649103013,-0.239651,0.347977,-0.038857,2.17702,0.292372,-1.586703
1515649103023,-0.194812,0.368012,-0.005629,2.092188,0.317835,-1.58744
1515649103033,-0.138149,0.38207,0.024117,2.014861,0.308872,-1.55508
1515649103043,-0.093778,0.395635,0.041258,1.964164,0.238859,-1.511013
1515649103054,-0.056144,0.402905,0.038862,1.963376,0.120789,-1.468162
1515649103064,-0.025702,0.405255,0.029363,2.025223,-0.047431,-1.428722
1515649103074,-0.000483,0.406129,0.012963,2.136924,-0.237973,-1.394803
1515649103084,0.013027,0.407604,0.015862,2.225193,-0.377095,-1.373658
1515649103094,0.031172,0.411431,0.062084,2.196696,-0.425484,-1.355332
1515649103104,0.053608,0.418445,0.127414,2.076881,-0.391667,-1.333515
1515649103114,0.068616,0.421164,0.169518,1.932619,-0.323639,-1.311639
1515649103124,0.080533,0.419879,0.18368,1.794762,-0.277036,-1.286559
1515649103134,0.103397,0.418854,0.189414,1.654847,-0.256216,-1.248629
1515649103144,0.125186,0.426827,0.204462,1.493705,-0.219454,-1.19782
1515649103154,0.14235,0.442333,0.2268,1.317642,-0.144204,-1.139519
1515649103164,0.171042,0.449168,0.238416,1.143737,-0.084011,-1.068405
1515649103174,0.194254,0.448798,0.232723,0.993222,-0.05698,-0.993082
1515649103185,0.212913,0.45496,0.2316,0.851234,-0.05348,-0.920966
1515649103195,0.237243,0.463484,0.235533,0.724129,-0.070306,-0.845688
1515649103205,0.262891,0.469584,0.232034,0.634174,-0.112831,-0.75132
1515649103215,0.291716,0.47318,0.218183,0.587751,-0.193816,-0.652818
1515649103225,0.307238,0.472848,0.202819,0.578443,-0.285414,-0.552329
1515649103235,0.318373,0.477002,0.19617,0.576506,-0.356633,-0.451896
1515649103245,0.324048,0.483486,0.204521,0.564962,-0.397802,-0.367471
1515649103255,0.317964,0.491306,0.212788,0.542783,-0.422905,-0.288357
1515649103265,0.323504,0.501085,0.222088,0.499351,-0.420243,-0.203851
1515649103275,0.340482,0.501999,0.235611,0.443178,-0.404858,-0.100095
1515649103285,0.354998,0.501883,0.248113,0.35204,-0.390677,0.00915
1515649103295,0.365479,0.498969,0.263372,0.242905,-0.384049,0.11848
1515649103305,0.369479,0.498375,0.270038,0.120016,-0.387121,0.231084
1515649103315,0.362749,0.502199,0.270174,0.00029,-0.382706,0.347935
1515649103326,0.358596,0.500943,0.264469,-0.12153,-0.389027,0.468011
1515649103336,0.347365,0.493853,0.246607,-0.229553,-0.405973,0.578434
1515649103346,0.330239,0.483651,0.22761,-0.323785,-0.43035,0.683471
1515649103356,0.311025,0.482672,0.214399,-0.416978,-0.446142,0.786358
1515649103366,0.288979,0.486207,0.202295,-0.497506,-0.437301,0.898767
1515649103376,0.2742,0.489133,0.190253,-0.580132,-0.437103,1.024005
1515649103386,0.252939,0.48328,0.169591,-0.647886,-0.452941,1.151333
1515649103396,0.220901,0.467668,0.144768,-0.691266,-0.469755,1.274289
1515649103406,0.163005,0.449539,0.111624,-0.724061,-0.483217,1.375848
1515649103416,0.101155,0.454756,0.093254,-0.773928,-0.444258,1.48275
1515649103426,0.040019,0.485816,0.093445,-0.855586,-0.40435,1.595124
1515649103436,-0.024164,0.524925,0.093991,-0.981699,-0.386074,1.721593
1515649103446,-0.086942,0.561132,0.096197,-1.155481,-0.373379,1.864281
1515649103457,-0.133808,0.584448,0.097028,-1.381191,-0.356667,2.029604
1515649103467,-0.176761,0.591231,0.085373,-1.627064,-0.327147,2.19286
1515649103477,-0.233006,0.587288,0.060703,-1.867642,-0.296432,2.334735
1515649103487,-0.289269,0.568697,0.017968,-2.065833,-0.270809,2.448693
1515649103497,-0.343163,0.528756,-0.034581,-2.202521,-0.26842,2.531469
1515649103507,-0.39055,0.4868,-0.079601,-2.293639,-0.267948,2.596968
1515649103517,-0.408678,0.440677,-0.105044,-2.380548,-0.254575,2.656028
1515649103527,-0.402957,0.377793,-0.122441,-2.451595,-0.228206,2.696859
1515649103537,-0.382686,0.300203,-0.145951,-2.5025,-0.207081,2.726936
1515649103547,-0.350092,0.213307,-0.169165,-2.534323,-0.191164,2.738793
1515649103557,-0.323926,0.139373,-0.190339,-2.533205,-0.217898,2.729214
1515649103567,-0.320751,0.09285,-0.209989,-2.510876,-0.257222,2.679001
1515649103577,-0.329928,0.06572,-0.211731,-2.483207,-0.319899,2.588237
1515649103588,-0.361106,0.048911,-0.21851,-2.414198,-0.393943,2.4386
1515649103598,-0.365937,0.031046,-0.23481,-2.297554,-0.446378,2.281262
1515649103608,-0.337362,0.009536,-0.25811,-2.148074,-0.488186,2.161129
1515649103618,-0.288333,-0.016089,-0.286503,-1.958337,-0.518396,2.102716
1515649103628,-0.244924,-0.041001,-0.317339,-1.715571,-0.563702,2.095332
1515649103638,-0.220817,-0.066703,-0.350174,-1.414433,-0.644391,2.128304
1515649103648,-0.216535,-0.095375,-0.370208,-1.09312,-0.742225,2.17402
1515649103658,-0.224929,-0.121427,-0.366369,-0.793004,-0.839013,2.212351
1515649103668,-0.254847,-0.15322,-0.341487,-0.554429,-0.905749,2.202877
1515649103678,-0.328199,-0.186315,-0.299039,-0.407198,-0.889703,2.081614
1515649103688,-0.428335,-0.227048,-0.240526,-0.371581,-0.733983,1.814419
1515649103698,-0.504539,-0.279492,-0.180943,-0.410365,-0.488037,1.456702
1515649103708,-0.529384,-0.328694,-0.159654,-0.471497,-0.199324,1.103295
1515649103719,-0.490238,-0.36612,-0.148945,-0.534733,0.089052,0.816079
1515649103729,-0.409012,-0.384566,-0.136465,-0.605306,0.350244,0.60471
1515649103739,-0.320372,-0.38296,-0.113594,-0.690567,0.553212,0.458582
1515649103749,-0.238457,-0.370075,-0.086085,-0.788404,0.697006,0.354215
1515649103759,-0.161875,-0.352324,-0.070393,-0.880806,0.782779,0.286193
1515649103769,-0.095013,-0.338109,-0.067243,-0.965717,0.839504,0.246991
1515649103779,-0.044699,-0.324053,-0.068739,-1.040032,0.898389,0.210939
1515649103789,-0.010875,-0.31303,-0.074527,-1.09207,0.945539,0.178013
1515649103799,0.018759,-0.312526,-0.101485,-1.099611,0.997064,0.153435
1515649103809,0.046779,-0.314939,-0.12349,-1.092334,1.059259,0.146921
1515649103819,0.077945,-0.310981,-0.129907,-1.075434,1.084954,0.160694
1515649103829,0.1075,-0.316135,-0.141001,-1.012838,1.056007,0.202092
1515649103839,0.126992,-0.324093,-0.162584,-0.907701,0.960667,0.262601
1515649103849,0.132779,-0.325885,-0.177451,-0.788679,0.816089,0.322048
1515649103860,0.126251,-0.33353,-0.188336,-0.665356,0.642607,0.379379
1515649103870,0.111087,-0.343752,-0.197196,-0.562199,0.484079,0.433575
1515649103880,0.085831,-0.352296,-0.198755,-0.50477,0.400306,0.509218
1515649103890,0.049946,-0.36392,-0.193416,-0.505941,0.458814,0.592406
1515649103900,-0.011821,-0.374519,-0.174894,-0.548722,0.642624,0.660669
1515649103910,-0.065662,-0.394022,-0.168275,-0.596842,0.842564,0.713994
1515649103920,-0.094714,-0.440025,-0.209658,-0.559962,0.940982,0.766017
1515649103930,-0.136095,-0.466206,-0.273442,-0.379847,0.956424,0.78551
1515649103940,-0.210955,-0.492084,-0.324164,-0.093694,0.935034,0.73521
1515649103950,-0.315714,-0.478774,-0.33065,0.173376,0.905488,0.59001
1515649103960,-0.396071,-0.43556,-0.293195,0.345021,0.892103,0.369414
1515649103970,-0.441974,-0.419029,-0.235648,0.392643,0.89247,0.109834
1515649103980,-0.458535,-0.408484,-0.177017,0.344932,0.874414,-0.165324
1515649103991,-0.431274,-0.374222,-0.137814,0.234668,0.874209,-0.405016
1515649104001,-0.369826,-0.338636,-0.13065,0.123468,0.82752,-0.562455
1515649104011,-0.300544,-0.308866,-0.166886,0.103492,0.749589,-0.630585
1515649104021,-0.233217,-0.276526,-0.231558,0.317619,0.72118,-0.605849
1515649104031,-0.200979,-0.254907,-0.30366,0.456671,0.617631,-0.597774
1515649104041,-0.247537,-0.202402,-0.184095,0.481198,0.545004,-0.628741
1515649104051,-0.236213,-0.144017,-0.152499,0.462425,0.403816,-0.68719
1515649104061,-0.286804,-0.137521,-0.142715,0.48619,0.19326,-0.774556
1515649104071,-0.355427,-0.099335,-0.12616,0.560936,-0.075808,-0.914366
1515649104081,-0.425757,-0.057385,-0.099011,0.655963,-0.410192,-1.049912
1515649104091,-0.444009,-0.031485,-0.061817,0.728825,-0.775069,-1.099933
1515649104101,-0.423418,0.005275,-0.020691,0.760267,-1.084981,-1.024961
1515649104111,-0.398836,0.024918,0.012302,0.750105,-1.25644,-0.80909
1515649104122,-0.399347,0.017,0.03296,0.706974,-1.371417,-0.552585
1515649104132,-0.437808,-0.038716,0.057171,0.614979,-1.44521,-0.419744
1515649104142,-0.491273,-0.129443,0.095015,0.448683,-1.482938,-0.473427
1515649104152,-0.534893,-0.22377,0.118625,0.196292,-1.423621,-0.702981
1515649104162,-0.548962,-0.287707,0.107208,-0.077497,-1.286573,-1.063831
1515649104172,-0.515797,-0.30459,0.054132,-0.331631,-0.940331,-1.46772
1515649104182,-0.456972,-0.255337,-0.030544,-0.505825,-0.322,-1.814652
1515649104192,-0.326075,-0.160595,-0.106506,-0.51895,0.314252,-2.006456
1515649104202,-0.157464,-0.057703,-0.220926,-0.275245,0.800159,-1.973945
1515649104212,-0.032809,0.001172,-0.318629,0.203263,1.025807,-1.818297
1515649104222,0.048043,0.089769,-0.373131,0.856161,0.985048,-1.632105
1515649104232,0.047527,0.169907,-0.369834,1.568916,0.712089,-1.468293
1515649104242,0.028621,0.221104,-0.322539,2.224836,0.26334,-1.322162
1515649104253,-0.021636,0.266658,-0.241649,2.707151,-0.268356,-1.190131
1515649104263,-0.064361,0.273356,-0.130625,2.940432,-0.795391,-1.067722
1515649104273,-0.13738,0.293396,-0.026321,2.967014,-1.308547,-1.059721
1515649104283,-0.217932,0.300145,0.020183,2.872375,-1.647934,-1.165627
1515649104293,-0.272457,0.280597,0.052252,2.667928,-1.694994,-1.304524
1515649104303,-0.291823,0.287903,0.085935,2.335839,-1.522962,-1.411129
1515649104313,-0.279704,0.295047,0.09991,1.93665,-1.194922,-1.474946
1515649104323,-0.248533,0.283204,0.089089,1.561652,-0.781268,-1.50482
1515649104333,-0.20326,0.268365,0.062006,1.22798,-0.365442,-1.515658
1515649104343,-0.155445,0.264637,0.03381,0.968585,0.004575,-1.534226
1515649104353,-0.106441,0.265551,0.006008,0.802644,0.284855,-1.548812
1515649104363,-0.042687,0.259585,-0.021858,0.715323,0.473263,-1.570021
1515649104373,0.01461,0.256914,-0.046453,0.702462,0.534465,-1.604199
1515649104383,0.063037,0.263555,-0.064899,0.731094,0.522927,-1.636334
1515649104394,0.103727,0.263363,-0.068121,0.789401,0.508284,-1.672856
1515649104404,0.132245,0.270975,-0.048975,0.837062,0.512963,-1.723228
1515649104414,0.156737,0.28873,-0.020259,0.874104,0.530382,-1.756497
1515649104424,0.196437,0.308395,0.004568,0.903722,0.554059,-1.759857
1515649104434,0.25035,0.331822,0.027686,0.923827,0.572099,-1.713
1515649104444,0.309357,0.343068,0.048621,0.931293,0.560955,-1.622293
1515649104454,0.351702,0.34273,0.06714,0.919728,0.531444,-1.512266
1515649104464,0.371067,0.341091,0.0805,0.916624,0.5063,-1.414013
1515649104474,0.378394,0.339279,0.094941,0.911381,0.491871,-1.31684
1515649104484,0.384367,0.340482,0.104102,0.907249,0.457037,-1.208977
1515649104494,0.385404,0.350297,0.111132,0.89252,0.421088,-1.098928
1515649104504,0.384098,0.364196,0.129775,0.84595,0.406497,-0.994104
1515649104514,0.383384,0.37931,0.152951,0.759054,0.419598,-0.880607
1515649104525,0.389978,0.390634,0.174534,0.652021,0.436818,-0.745682
1515649104535,0.396239,0.400351,0.179329,0.552455,0.432585,-0.601154
1515649104545,0.409484,0.404662,0.178796,0.458235,0.40903,-0.445955
1515649104555,0.417348,0.405152,0.175105,0.380022,0.334127,-0.29716
1515649104565,0.417303,0.395453,0.162028,0.317775,0.228137,-0.135583
1515649104575,0.404747,0.377204,0.149203,0.254408,0.147954,0.006751
1515649104585,0.380062,0.376602,0.142542,0.196267,0.097877,0.130879
1515649104595,0.348101,0.376045,0.13141,0.161423,0.053312,0.237822
1515649104605,0.304487,0.364144,0.115883,0.141395,0.015316,0.32548
1515649104615,0.254741,0.354055,0.101112,0.149949,-0.011773,0.391655
1515649104625,0.207114,0.348493,0.086315,0.187068,-0.019411,0.441672
1515649104635,0.178749,0.343886,0.082742,0.222058,-0.023815,0.486358
1515649104645,0.163533,0.344304,0.078946,0.263438,-0.042198,0.544915
1515649104656,0.156742,0.339583,0.075866,0.321793,-0.068039,0.605539
1515649104666,0.142554,0.338565,0.075239,0.399295,-0.128043,0.653316
1515649104676,0.119642,0.353628,0.077051,0.483186,-0.200912,0.706419
1515649104686,0.082942,0.402982,0.094754,0.554377,-0.280262,0.762784
1515649104696,0.040903,0.484771,0.127391,0.583166,-0.352305,0.832131
1515649104706,0.014696,0.567861,0.167447,0.571692,-0.421495,0.94968
1515649104716,0.007665,0.620121,0.196249,0.521135,-0.541403,1.116559
1515649104726,0.007381,0.633586,0.203418,0.450594,-0.725763,1.304951
1515649104736,0.005085,0.597843,0.19533,0.373759,-0.937016,1.51155
1515649104746,-0.012596,0.528525,0.176118,0.295814,-1.125763,1.715989
1515649104756,-0.039299,0.437726,0.154759,0.213491,-1.254429,1.90116
1515649104766,-0.083579,0.33799,0.126503,0.140489,-1.292793,2.030675
1515649104776,-0.147329,0.239014,0.091854,0.105452,-1.257756,2.073477
1515649104786,-0.228497,0.150711,0.044781,0.113694,-1.159882,2.00287
1515649104797,-0.307823,0.089425,0.017328,0.154679,-1.023963,1.842416
1515649104807,-0.35869,0.055904,0.006781,0.251823,-0.888829,1.658242
1515649104817,-0.38759,0.03009,-0.006433,0.430685,-0.808101,1.475921
1515649104827,-0.385771,0.019431,-0.009959,0.645863,-0.854786,1.298941
1515649104837,-0.365084,0.013999,0.008175,0.866613,-1.02362,1.127428
1515649104847,-0.357515,0.013177,0.037528,1.073768,-1.273883,0.948602
1515649104857,-0.33018,0.019217,0.069069,1.229116,-1.573721,0.796745
1515649104867,-0.291361,0.015515,0.08323,1.343135,-1.866476,0.703761
1515649104877,-0.255664,-0.011182,0.085544,1.374122,-1.986139,0.655746
1515649104887,-0.21597,-0.034349,0.133001,1.217072,-1.889149,0.662703
1515649104897,-0.193406,-0.037692,0.196129,0.920888,-1.650081,0.670072
1515649104907,-0.177921,-0.044791,0.215819,0.59388,-1.36617,0.69032
1515649104917,-0.145787,-0.053973,0.194131,0.289223,-1.125166,0.734015
1515649104928,-0.12174,-0.064612,0.154782,0.02607,-0.964366,0.772298
1515649104938,-0.109354,-0.073386,0.120119,-0.17554,-0.840804,0.795419
1515649104948,-0.088297,-0.080073,0.074271,-0.312405,-0.764183,0.817256
1515649104958,-0.067557,-0.09552,0.024968,-0.398323,-0.723868,0.845324
1515649104968,-0.060094,-0.118709,-0.019544,-0.452383,-0.716536,0.846613
1515649104978,-0.059285,-0.118139,-0.063561,-0.450327,-0.689671,0.831627
1515649104988,-0.033132,-0.125907,-0.111558,-0.392075,-0.673508,0.848433
1515649104998,-0.004871,-0.164957,-0.160748,-0.325381,-0.640269,0.88333
1515649105008,0.03433,-0.177642,-0.169157,-0.303327,-0.547189,0.922615
1515649105018,0.048259,-0.182677,-0.162894,-0.325847,-0.424233,0.959915
1515649105028,0.066679,-0.198013,-0.161342,-0.370648,-0.28748,1.010104
1515649105038,0.077627,-0.213767,-0.160491,-0.414332,-0.175397,1.066721
1515649105048,0.076099,-0.236792,-0.165776,-0.463262,-0.087881,1.105244
1515649105059,0.047008,-0.243924,-0.159594,-0.519544,-0.036549,1.090476
1515649105069,0.011094,-0.233639,-0.16222,-0.535435,-0.045926,1.027583
1515649105079,-0.008158,-0.231897,-0.188866,-0.504558,-0.119365,0.948557
1515649105089,-0.003487,-0.244164,-0.22027,-0.436489,-0.236764,0.898247
1515649105099,0.015591,-0.253002,-0.256481,-0.332403,-0.344581,0.881926
1515649105109,0.027154,-0.257491,-0.279697,-0.215693,-0.409568,0.878307
1515649105119,0.027189,-0.267136,-0.299623,-0.086309,-0.455264,0.881014
1515649105129,0.024208,-0.287706,-0.31971,0.048337,-0.484862,0.881543
1515649105139,0.019969,-0.308383,-0.326718,0.159627,-0.495261,0.88535
1515649105149,0.00856,-0.312594,-0.326007,0.258172,-0.493867,0.879592
1515649105159,-0.007696,-0.321551,-0.329111,0.360971,-0.498882,0.872756
1515649105169,-0.030507,-0.331614,-0.329687,0.472281,-0.520917,0.84669
1515649105179,-0.060777,-0.336858,-0.325913,0.568812,-0.56869,0.81645
1515649105190,-0.084474,-0.3508,-0.317084,0.638863,-0.621915,0.789533
1515649105200,-0.118065,-0.358317,-0.30842,0.684532,-0.670907,0.758445
1515649105210,-0.15232,-0.373729,-0.305049,0.713204,-0.702744,0.714599
1515649105220,-0.17947,-0.391216,-0.300826,0.698341,-0.696089,0.660217
1515649105230,-0.21633,-0.407858,-0.287749,0.617649,-0.635936,0.580437
1515649105240,-0.25549,-0.424271,-0.275505,0.500809,-0.523307,0.483662
1515649105250,-0.273505,-0.435288,-0.281137,0.368028,-0.388241,0.390124
1515649105260,-0.280931,-0.438152,-0.297701,0.244732,-0.230686,0.303994
1515649105270,-0.282731,-0.431854,-0.320078,0.147915,-0.06979,0.208147
1515649105280,-0.29643,-0.421309,-0.348373,0.087146,0.081685,0.089736
1515649105290,-0.301899,-0.410321,-0.373426,0.055045,0.208632,-0.034107
1515649105300,-0.308148,-0.397919,-0.393332,0.053675,0.33252,-0.170882
1515649105310,-0.31021,-0.382896,-0.408112,0.0756,0.464011,-0.31417
1515649105320,-0.297657,-0.375006,-0.425497,0.136774,0.577411,-0.458671
1515649105331,-0.27665,-0.368438,-0.439909,0.231892,0.675888,-0.597963
1515649105341,-0.260211,-0.347624,-0.442889,0.341912,0.746479,-0.722338
1515649105351,-0.264359,-0.306746,-0.438882,0.466822,0.793463,-0.830734
1515649105361,-0.296546,-0.248875,-0.4211,0.595979,0.839293,-0.919936
1515649105371,-0.325722,-0.187116,-0.397683,0.733636,0.879601,-0.970744
1515649105381,-0.34293,-0.133596,-0.370285,0.89678,0.900444,-0.970399
1515649105391,-0.362866,-0.082516,-0.338614,1.048446,0.845029,-0.938955
1515649105401,-0.387795,-0.036165,-0.298006,1.180131,0.724044,-0.876389
1515649105411,-0.408256,-0.015739,-0.26,1.291806,0.55249,-0.782725
1515649105421,-0.428099,-0.036163,-0.232383,1.391943,0.32629,-0.695344
1515649105431,-0.466856,-0.08312,-0.207439,1.436971,0.09592,-0.66429
1515649105441,-0.515626,-0.132227,-0.157851,1.375849,-0.063545,-0.735345
1515649105451,-0.549713,-0.174124,-0.092261,1.156556,-0.108342,-0.907272
1515649105462,-0.550651,-0.195789,-0.028656,0.784264,0.021315,-1.134267
1515649105472,-0.510576,-0.186424,0.012445,0.327851,0.334863,-1.334444
1515649105482,-0.427779,-0.1521,0.01241,-0.107618,0.768105,-1.461214
1515649105492,-0.325075,-0.101576,-0.024804,-0.439224,1.204486,-1.510514
1515649105502,-0.221637,-0.039013,-0.089194,-0.589394,1.54358,-1.49322
1515649105512,-0.13483,0.014321,-0.16325,-0.537939,1.758787,-1.433932
1515649105522,-0.06962,0.062545,-0.218235,-0.314509,1.839443,-1.360269
1515649105532,-0.036611,0.098691,-0.257197,0.057608,1.771667,-1.295599
1515649105542,-0.03665,0.133586,-0.27408,0.516935,1.556545,-1.280213
1515649105552,-0.067896,0.175293,-0.260901,1.005125,1.220755,-1.327769
1515649105562,-0.0857,0.198184,-0.222748,1.466957,0.824936,-1.384749
1515649105572,-0.087233,0.200152,-0.174549,1.839718,0.455623,-1.439248
1515649105582,-0.084004,0.208035,-0.100833,2.05432,0.205825,-1.492153
1515649105593,-0.066563,0.217051,-0.006636,2.09165,0.094661,-1.52206
1515649105603,-0.040495,0.207437,0.067392,1.998394,0.096528,-1.522732
1515649105613,-0.015384,0.19364,0.109626,1.830811,0.167727,-1.506098
1515649105623,0.002608,0.184852,0.137034,1.631374,0.267709,-1.479754
1515649105633,0.008179,0.179901,0.147271,1.433016,0.358095,-1.461942
1515649105643,0.01511,0.18041,0.14457,1.253785,0.423938,-1.452721
1515649105653,0.018153,0.188761,0.137874,1.114861,0.470677,-1.455388
1515649105663,0.012317,0.198973,0.131101,1.007758,0.502591,-1.474184
1515649105673,0.008703,0.208797,0.123832,0.946266,0.513307,-1.511297
1515649105683,0.024822,0.218466,0.113185,0.91351,0.468338,-1.536718
1515649105693,0.054828,0.227141,0.109002,0.892478,0.394373,-1.541868
1515649105703,0.087064,0.238461,0.102853,0.889511,0.302107,-1.518257
1515649105713,0.12451,0.245758,0.097259,0.883341,0.224677,-1.463701
1515649105724,0.155011,0.247839,0.102012,0.843197,0.176034,-1.40156
1515649105734,0.173152,0.251872,0.116206,0.748861,0.192577,-1.338198
1515649105744,0.185754,0.260308,0.139496,0.609923,0.252924,-1.276839
1515649105754,0.187467,0.271438,0.154244,0.451867,0.33357,-1.215428
1515649105764,0.194282,0.276878,0.150646,0.320339,0.397143,-1.15197
1515649105774,0.208597,0.287177,0.138754,0.22809,0.429737,-1.083304
1515649105784,0.224024,0.293886,0.126122,0.189998,0.412128,-1.012671
1515649105794,0.238976,0.296015,0.110173,0.212445,0.335691,-0.925148
1515649105804,0.255328,0.299381,0.093591,0.265704,0.221841,-0.83664
1515649105814,0.263126,0.298716,0.086826,0.322157,0.10154,-0.741728
1515649105824,0.269111,0.2963,0.093708,0.358382,0.023011,-0.656393
1515649105834,0.271999,0.297454,0.109865,0.346827,-0.0128,-0.571977
1515649105844,0.272083,0.295071,0.124918,0.308738,-0.031507,-0.496007
1515649105854,0.274719,0.293061,0.125099,0.263229,-0.04916,-0.421073
1515649105865,0.273933,0.294972,0.127561,0.194349,-0.041143,-0.351408
1515649105875,0.268929,0.301354,0.141938,0.101002,0.008585,-0.281692
1515649105885,0.272077,0.308921,0.15554,0.00129,0.063566,-0.194877
1515649105895,0.274777,0.314042,0.147314,-0.07398,0.088573,-0.098522
1515649105905,0.266863,0.320706,0.130373,-0.11947,0.064407,-0.006502
1515649105915,0.260297,0.327731,0.112194,-0.147928,0.005975,0.091894
1515649105925,0.241168,0.33447,0.095148,-0.160446,-0.07172,0.195582
1515649105935,0.210004,0.339268,0.080411,-0.162409,-0.132172,0.285326
1515649105945,0.166559,0.337192,0.06287,-0.161201,-0.191425,0.351573
1515649105955,0.120912,0.332642,0.04231,-0.145206,-0.230241,0.410263
1515649105965,0.078362,0.338638,0.030892,-0.108123,-0.220801,0.473069
1515649105975,0.035965,0.358206,0.034637,-0.072158,-0.184594,0.539046
1515649105985,0.007352,0.3819,0.05733,-0.061618,-0.150683,0.62008
1515649105996,-0.005192,0.398613,0.081364,-0.063696,-0.158662,0.715094
1515649106006,-0.018478,0.422081,0.081419,-0.078374,-0.217121,0.827306
1515649106016,-0.014111,0.430661,0.082052,-0.111041,-0.283305,0.97376
1515649106026,0.000228,0.416573,0.085837,-0.184977,-0.37329,1.141768
1515649106036,-0.002305,0.397057,0.078018,-0.304457,-0.475113,1.292907
1515649106046,-0.02743,0.366239,0.079357,-0.408208,-0.501922,1.45029
1515649106056,-0.035729,0.313672,0.04792,-0.489787,-0.492254,1.610736
1515649106066,-0.079239,0.265506,0.026907,-0.554564,-0.419103,1.727266
1515649106076,-0.102721,0.200034,0.020492,-0.632087,-0.336146,1.803277
1515649106086,-0.11648,0.134326,0.010154,-0.712777,-0.262671,1.845157
1515649106096,-0.126589,0.079027,-0.003851,-0.745757,-0.203859,1.848425
1515649106106,-0.134309,0.038537,-0.029578,-0.733115,-0.172654,1.829119
1515649106116,-0.160922,0.026826,-0.045162,-0.702422,-0.162627,1.770271
1515649106127,-0.184102,0.026543,-0.049003,-0.670674,-0.152468,1.685799
1515649106137,-0.193955,0.031934,-0.045369,-0.650575,-0.14761,1.583236
1515649106147,-0.203763,0.043918,-0.045279,-0.641058,-0.15128,1.465787
1515649106157,-0.202562,0.057553,-0.051567,-0.61664,-0.181793,1.36859
1515649106167,-0.171295,0.066518,-0.067828,-0.576265,-0.233983,1.331124
1515649106177,-0.134771,0.071309,-0.085985,-0.523193,-0.27242,1.336282
1515649106187,-0.124195,0.071513,-0.101259,-0.464848,-0.299103,1.35101
1515649106197,-0.122722,0.061758,-0.118946,-0.398127,-0.279702,1.367778
1515649106207,-0.12103,0.047262,-0.140267,-0.329365,-0.227012,1.370621
1515649106217,-0.136269,0.021319,-0.141519,-0.290311,-0.161401,1.342621
1515649106227,-0.147731,-0.003098,-0.114832,-0.270356,-0.087143,1.288006
1515649106237,-0.155739,-0.015506,-0.108265,-0.25146,-0.016986,1.19604
1515649106247,-0.17489,-0.030286,-0.112162,-0.228297,0.037266,1.073124
1515649106258,-0.159529,-0.050583,-0.111425,-0.198726,0.070029,0.966219
1515649106268,-0.111811,-0.067736,-0.110507,-0.187111,0.080107,0.886103
1515649106278,-0.061007,-0.07939,-0.107356,-0.190327,0.091099,0.828462
1515649106288,-0.020776,-0.094175,-0.105682,-0.190369,0.105235,0.786816
1515649106298,0.013544,-0.104541,-0.117257,-0.164977,0.120455,0.757867
1515649106308,0.04791,-0.106666,-0.125438,-0.124772,0.148444,0.755526
1515649106318,0.078228,-0.106091,-0.125948,-0.089882,0.185941,0.776679
1515649106328,0.096589,-0.109162,-0.128888,-0.051797,0.218016,0.812768
1515649106338,0.101142,-0.109923,-0.134446,0.005355,0.25234,0.839167
1515649106348,0.086641,-0.106493,-0.14116,0.082617,0.295386,0.847322
1515649106358,0.069581,-0.110849,-0.14081,0.152464,0.336342,0.840566
1515649106368,0.053882,-0.119837,-0.130236,0.204352,0.350528,0.820046
1515649106378,0.044529,-0.126992,-0.116582,0.239311,0.35285,0.804953
1515649106388,0.045727,-0.130413,-0.101525,0.269007,0.341181,0.799504
1515649106399,0.046285,-0.139988,-0.096697,0.286002,0.324053,0.806924
1515649106409,0.049429,-0.15639,-0.088208,0.277538,0.319662,0.822977
1515649106419,0.045463,-0.171508,-0.079498,0.241486,0.333349,0.849796
1515649106429,0.022787,-0.190245,-0.075255,0.193719,0.368619,0.838215
1515649106439,-0.036313,-0.210542,-0.079897,0.170284,0.41497,0.767812
1515649106449,-0.11051,-0.230263,-0.087273,0.174348,0.476808,0.616148
1515649106459,-0.214831,-0.254692,-0.108812,0.21548,0.537154,0.356518
1515649106469,-0.300924,-0.278651,-0.135924,0.266109,0.607517,0.027457
1515649106479,-0.322426,-0.294298,-0.161928,0.373874,0.718626,-0.274142
1515649106489,-0.345466,-0.287703,-0.177301,0.542308,0.720215,-0.491543
1515649106499,-0.338241,-0.26907,-0.16068,0.744896,0.621853,-0.625711
1515649106509,-0.302255,-0.24796,-0.115385,0.930632,0.483494,-0.698913
1515649106519,-0.294421,-0.246637,-0.021226,0.972388,0.285693,-0.755413
1515649106530,-0.262818,-0.254487,0.088237,0.786331,0.080735,-0.802395
1515649106540,-0.21323,-0.271119,0.181299,0.400904,-0.054214,-0.828333
1515649106550,-0.185367,-0.279381,0.242944,-0.046366,-0.018997,-0.85422
1515649106560,-0.18736,-0.272,0.235362,-0.416563,0.146988,-0.845377
1515649106570,-0.185387,-0.258075,0.192947,-0.713707,0.344162,-0.816604
1515649106580,-0.174194,-0.225553,0.17006,-0.952422,0.474084,-0.801873
1515649106590,-0.179706,-0.174809,0.146261,-1.089099,0.466092,-0.785269
1515649106600,-0.19518,-0.129734,0.117109,-1.107812,0.307335,-0.758304
1515649106610,-0.215786,-0.104981,0.096637,-1.03822,-0.007605,-0.726185
1515649106620,-0.220419,-0.106809,0.089462,-0.92726,-0.343787,-0.70702
1515649106630,-0.227966,-0.098722,0.114357,-0.847306,-0.552692,-0.662269
1515649106640,-0.255954,-0.086185,0.151511,-0.818253,-0.737427,-0.553292
1515649106650,-0.299603,-0.095894,0.192572,-0.905856,-0.88388,-0.45667
1515649106661,-0.321774,-0.085907,0.221885,-1.130467,-0.89864,-0.424739
1515649106671,-0.310155,-0.068095,0.208482,-1.370223,-0.777293,-0.409991
1515649106681,-0.301332,-0.061594,0.173384,-1.510652,-0.523059,-0.342466
1515649106691,-0.285757,-0.058924,0.164392,-1.584311,-0.268875,-0.225057
1515649106701,-0.268041,-0.077574,0.16248,-1.63446,-0.110722,-0.172734
1515649106711,-0.265484,-0.089208,0.151901,-1.687595,-0.052596,-0.259038
1515649106721,-0.270934,-0.079398,0.141901,-1.72477,-0.033496,-0.458513
1515649106731,-0.272777,-0.062919,0.123539,-1.718578,0.012832,-0.721175
1515649106741,-0.259148,-0.030832,0.082146,-1.646781,0.10216,-0.973494
1515649106751,-0.208431,0.019206,0.060229,-1.52204,0.217015,-1.156694
1515649106761,-0.15027,0.065262,0.038999,-1.328258,0.271542,-1.232307
1515649106771,-0.098126,0.104234,0.025999,-1.091933,0.266786,-1.210895
1515649106781,-0.06799,0.13395,0.045354,-0.836457,0.231881,-1.147899
1515649106792,-0.060363,0.144083,0.069356,-0.602061,0.144494,-1.100758
1515649106802,-0.077494,0.132058,0.088682,-0.439692,0.0389,-1.098119
1515649106812,-0.1122,0.123498,0.12697,-0.377041,-0.023895,-1.144206
1515649106822,-0.150716,0.111317,0.157691,-0.388725,-0.020371,-1.213535
1515649106832,-0.158856,0.095265,0.171281,-0.424926,0.048462,-1.288184
1515649106842,-0.142693,0.095659,0.177932,-0.473919,0.153616,-1.348951
1515649106852,-0.113163,0.107161,0.175314,-0.518664,0.2565,-1.381978
1515649106862,-0.074739,0.120824,0.166683,-0.534718,0.326129,-1.389465
1515649106872,-0.056532,0.127632,0.145922,-0.506152,0.346561,-1.387478
1515649106882,-0.041698,0.122441,0.121439,-0.431962,0.341456,-1.39313
1515649106892,-0.026653,0.115449,0.10015,-0.339688,0.304256,-1.397746
1515649106902,-0.007914,0.111256,0.079031,-0.253714,0.241324,-1.402304
1515649106912,0.005844,0.110806,0.058866,-0.181454,0.151529,-1.399298
1515649106922,0.019827,0.105237,0.037523,-0.111264,0.039217,-1.394117
1515649106933,0.031547,0.098012,0.01262,-0.03782,-0.106283,-1.392114
1515649106943,0.037862,0.094949,-0.012216,0.054633,-0.22382,-1.399833
1515649106953,0.04731,0.089918,-0.025314,0.159687,-0.289887,-1.408738
1515649106963,0.044281,0.084695,-0.035773,0.261483,-0.320608,-1.417674
1515649106973,0.054183,0.088673,-0.039445,0.327204,-0.330052,-1.417943
1515649106983,0.087576,0.09445,-0.036887,0.356936,-0.355773,-1.398821
1515649106993,0.127229,0.100123,-0.031374,0.367636,-0.397717,-1.360388
1515649107003,0.158491,0.109055,-0.031037,0.369902,-0.45798,-1.305884
1515649107013,0.176678,0.115629,-0.03696,0.385914,-0.50325,-1.241852
1515649107023,0.19175,0.115409,-0.037203,0.39233,-0.521715,-1.187426
1515649107033,0.205953,0.117871,-0.033264,0.366874,-0.503913,-1.120094
1515649107043,0.22644,0.123838,-0.025281,0.310615,-0.454058,-1.053738
1515649107053,0.244518,0.129688,-0.026631,0.266015,-0.404215,-0.977825
1515649107064,0.259903,0.132352,-0.032803,0.237341,-0.369313,-0.904094
1515649107074,0.275172,0.140184,-0.026058,0.212867,-0.317192,-0.843214
1515649107084,0.294819,0.152362,-0.016423,0.189496,-0.284363,-0.780181
1515649107094,0.318774,0.163364,-0.011124,0.154517,-0.273014,-0.713868
1515649107104,0.347875,0.172082,-0.004459,0.120604,-0.263841,-0.640085
1515649107114,0.376382,0.182315,0.002499,0.080362,-0.265492,-0.548115
1515649107124,0.399285,0.187119,0.00053,0.048568,-0.252187,-0.442325
1515649107134,0.430017,0.19058,0.00757,0.00614,-0.22183,-0.324769
1515649107144,0.446091,0.198869,0.0107,-0.042605,-0.207633,-0.193291
1515649107154,0.453389,0.203411,0.006234,-0.106161,-0.20421,-0.058533
1515649107164,0.449817,0.205847,0.011131,-0.155986,-0.18249,0.067607
1515649107174,0.425391,0.212065,0.018417,-0.203685,-0.164948,0.17346
1515649107184,0.365476,0.216513,0.017926,-0.217454,-0.163081,0.220481
1515649107195,0.287796,0.211676,0.015866,-0.207939,-0.155456,0.201218
1515649107205,0.234917,0.209667,0.013003,-0.160293,-0.143305,0.156173
1515649107215,0.204099,0.212788,0.005869,-0.089218,-0.179422,0.136702
1515649107225,0.182455,0.225298,0.001188,0.00631,-0.243667,0.186539
1515649107235,0.162043,0.252647,0.00502,0.112505,-0.329783,0.331358
1515649107245,0.118626,0.29295,0.016595,0.198636,-0.43985,0.540335
1515649107255,0.03935,0.335102,0.028733,0.241356,-0.567136,0.738846
1515649107265,-0.065857,0.374188,0.042525,0.24482,-0.677218,0.901213
1515649107275,-0.197473,0.401873,0.050389,0.242859,-0.733619,1.037918
1515649107285,-0.3185,0.411467,0.06369,0.247115,-0.727779,1.158505
1515649107295,-0.392224,0.408029,0.082957,0.216278,-0.669467,1.263168
1515649107305,-0.430047,0.394604,0.107101,0.110143,-0.584544,1.357445
1515649107315,-0.432344,0.363797,0.124349,-0.077602,-0.494468,1.443525
1515649107326,-0.413337,0.306783,0.137976,-0.325888,-0.343474,1.523387
1515649107336,-0.368896,0.23851,0.164663,-0.603997,-0.12603,1.580874
1515649107346,-0.312835,0.173417,0.174733,-0.875732,0.080884,1.605257
1515649107356,-0.251449,0.108905,0.157655,-1.113426,0.22591,1.599685
1515649107366,-0.191817,0.050429,0.135308,-1.27476,0.338197,1.544727
1515649107376,-0.13607,0.018824,0.112564,-1.354435,0.416648,1.448904
1515649107386,-0.072036,0.009058,0.08576,-1.350266,0.437502,1.351728
1515649107396,-0.00393,0.019922,0.043345,-1.285504,0.373834,1.267208
1515649107406,0.065397,0.033054,-0.016916,-1.128493,0.290937,1.227144
1515649107416,0.116804,0.028704,-0.064856,-0.869731,0.202728,1.238959
1515649107426,0.145473,0.015923,-0.09354,-0.538833,0.08037,1.266523
1515649107436,0.156815,0.004573,-0.10951,-0.196132,-0.108282,1.274903
1515649107446,0.143223,-0.007,-0.111082,0.118061,-0.343051,1.275986
1515649107456,0.109956,-0.030132,-0.100238,0.373911,-0.552246,1.269819
1515649107467,0.070598,-0.060179,-0.0673,0.542667,-0.673824,1.25858
1515649107477,0.038416,-0.092608,-0.028346,0.612661,-0.701331,1.230564
1515649107487,0.010945,-0.117383,0.005991,0.593438,-0.639073,1.195346
1515649107497,-0.009701,-0.135925,0.031935,0.505268,-0.547998,1.141171
1515649107507,-0.021042,-0.152027,0.045351,0.369413,-0.457045,1.082928
1515649107517,-0.013182,-0.160084,0.048047,0.212373,-0.368401,1.045061
1515649107527,0.002002,-0.183442,0.046748,0.042543,-0.242499,1.047763
1515649107537,0.021525,-0.205607,0.051706,-0.169723,-0.091171,1.082636
1515649107547,0.032025,-0.211458,0.048381,-0.424486,0.111343,1.140043
1515649107557,0.052939,-0.195692,0.023027,-0.632497,0.257231,1.194118
1515649107567,0.044768,-0.216672,-0.035986,-0.730168,0.338341,1.198703
1515649107577,0.049329,-0.215558,-0.09647,-0.713206,0.334165,1.186895
1515649107587,0.042087,-0.20447,-0.165748,-0.565661,0.221095,1.175733
1515649107598,0.040147,-0.214784,-0.234614,-0.281276,0.042139,1.138452
1515649107608,0.042258,-0.239146,-0.279912,0.108104,-0.178135,1.070886
1515649107618,0.038875,-0.253017,-0.293138,0.533532,-0.405865,1.015986
1515649107628,0.034024,-0.267539,-0.268015,0.891121,-0.622087,0.976301
1515649107638,0.02346,-0.2741,-0.221473,1.118257,-0.789414,0.936047
1515649107648,0.012992,-0.283338,-0.171989,1.224432,-0.886422,0.901563
1515649107658,0.006588,-0.305307,-0.126659,1.23084,-0.911967,0.871681
1515649107668,-0.006874,-0.328258,-0.095856,1.178814,-0.866102,0.881455
1515649107678,-0.037442,-0.349006,-0.076612,1.103312,-0.742314,0.934991
1515649107688,-0.050015,-0.375512,-0.069264,1.017027,-0.534968,0.984199
1515649107698,-0.077182,-0.404943,-0.077178,0.960273,-0.265414,1.037473
1515649107708,-0.12784,-0.407965,-0.084588,0.982904,0.04616,1.091421
1515649107718,-0.181352,-0.410804,-0.115546,1.047012,0.284198,1.091916
1515649107729,-0.224817,-0.419946,-0.157062,1.107143,0.395191,0.999725
1515649107739,-0.266717,-0.417096,-0.168365,1.154774,0.409727,0.906641
1515649107749,-0.294472,-0.408394,-0.164649,1.235391,0.360265,0.776134
1515649107759,-0.306455,-0.419131,-0.175011,1.341593,0.238184,0.613591
1515649107769,-0.304171,-0.415333,-0.174362,1.429847,0.084003,0.431953
1515649107779,-0.319494,-0.392252,-0.160131,1.510542,-0.004909,0.263072
1515649107789,-0.3385,-0.339487,-0.147123,1.592091,0.000353,0.116483
1515649107799,-0.347446,-0.297175,-0.144658,1.694825,0.013012,0.002885
1515649107809,-0.336807,-0.277415,-0.146985,1.770081,-0.004548,-0.082804
1515649107819,-0.286521,-0.230215,-0.110618,1.764776,-0.006489,-0.126542
1515649107829,-0.272617,-0.241539,-0.07235,1.729767,0.00034,-0.227803
1515649107839,-0.265805,-0.22485,-0.052781,1.641883,-0.042248,-0.334113
1515649107849,-0.263824,-0.143394,-0.027966,1.495762,-0.10127,-0.402793
1515649107860,-0.269204,-0.069485,-0.004074,1.316694,-0.114422,-0.451112
1515649107870,-0.25204,-0.006459,-0.001973,1.123791,-0.096748,-0.45885
1515649107880,-0.222723,0.033492,-0.025445,0.962718,-0.093086,-0.430415
1515649107890,-0.203761,0.046743,-0.074909,0.855817,-0.144003,-0.381866
1515649107900,-0.193342,0.041038,-0.130873,0.804124,-0.241896,-0.33349
1515649107910,-0.192456,0.027077,-0.184312,0.811814,-0.361965,-0.314159
1515649107920,-0.194198,0.008562,-0.242146,0.854414,-0.457191,-0.314221
1515649107930,-0.189052,-0.012735,-0.289825,0.902238,-0.519155,-0.320753
1515649107940,-0.181065,-0.036224,-0.318694,0.940471,-0.560665,-0.352886
1515649107950,-0.172112,-0.063446,-0.348868,0.969114,-0.580664,-0.407419
1515649107960,-0.161232,-0.08572,-0.374834,0.976494,-0.571692,-0.483247
1515649107970,-0.143625,-0.080597,-0.390771,0.950977,-0.543487,-0.568562
1515649107980,-0.107139,-0.057994,-0.40841,0.930765,-0.516401,-0.641092
1515649107990,-0.066677,-0.033051,-0.436363,0.947724,-0.521519,-0.678521
1515649108001,-0.029177,-0.011071,-0.471261,1.036788,-0.54376,-0.676738
1515649108011,-0.000494,0.000895,-0.498063,1.182003,-0.559511,-0.653853
1515649108021,0.002215,0.008113,-0.507255,1.361153,-0.584839,-0.623632
1515649108031,-0.006953,0.011977,-0.514107,1.572099,-0.614314,-0.602078
1515649108041,-0.019281,0.011104,-0.508255,1.785165,-0.645803,-0.605083
1515649108051,-0.025967,0.005058,-0.490522,1.964317,-0.676291,-0.61435
1515649108061,-0.019789,0.010735,-0.462744,2.094664,-0.683216,-0.651189
1515649108071,-0.036259,-0.00261,-0.431295,2.184582,-0.619439,-0.71036
1515649108081,-0.039283,-0.013141,-0.399445,2.229949,-0.535504,-0.756557
1515649108091,-0.016049,0.003727,-0.362584,2.235079,-0.461482,-0.772684
1515649108101,-0.0062,0.005926,-0.332389,2.237121,-0.434345,-0.842107
1515649108111,0.004625,-0.006945,-0.315259,2.24982,-0.435027,-0.912605
1515649108121,0.016241,-0.003235,-0.289961,2.23276,-0.395096,-0.980895
1515649108132,0.029554,0.002588,-0.253885,2.177431,-0.299647,-1.033082
1515649108142,0.046117,0.013407,-0.225927,2.123174,-0.208555,-1.070323
1515649108152,0.065298,0.031329,-0.20949,2.06894,-0.124041,-1.07767
1515649108162,0.071542,0.046997,-0.194078,2.032767,-0.059845,-1.081865
1515649108172,0.077113,0.062864,-0.182158,2.006221,-0.035315,-1.075377
1515649108182,0.086127,0.076251,-0.169273,1.97659,-0.05155,-1.060287
1515649108192,0.091955,0.087615,-0.154194,1.94171,-0.08926,-1.038745
1515649108202,0.090738,0.100522,-0.139747,1.896214,-0.117387,-1.01183
1515649108212,0.081198,0.104616,-0.120968,1.823105,-0.120897,-0.996567
1515649108222,0.076489,0.110868,-0.109216,1.744693,-0.120174,-0.973818
1515649108232,0.07868,0.115458,-0.096225,1.649286,-0.101277,-0.953157
1515649108242,0.082421,0.122259,-0.081735,1.541167,-0.084578,-0.929234
1515649108252,0.082636,0.12944,-0.071122,1.43199,-0.068959,-0.904236
1515649108263,0.087251,0.137535,-0.062142,1.328113,-0.053335,-0.877127
1515649108273,0.092272,0.142835,-0.065513,1.243359,-0.059091,-0.84794
1515649108283,0.095248,0.139936,-0.077895,1.181931,-0.0712,-0.81991
1515649108293,0.097301,0.143066,-0.082571,1.12894,-0.064041,-0.783402
1515649108303,0.098625,0.150733,-0.077948,1.060035,-0.04837,-0.744701
1515649108313,0.088457,0.159629,-0.072314,0.997466,-0.024066,-0.714577
1515649108323,0.075852,0.168566,-0.064539,0.939118,0.007794,-0.69302
1515649108333,0.068992,0.179471,-0.050377,0.868053,0.039653,-0.678884
1515649108343,0.063588,0.195037,-0.033839,0.785326,0.071567,-0.682841
1515649108353,0.063462,0.214401,-0.011714,0.690938,0.103503,-0.698486
1515649108363,0.070702,0.235745,0.001813,0.607218,0.105415,-0.702401
1515649108373,0.078492,0.255064,0.003559,0.540488,0.094415,-0.685026
1515649108383,0.088262,0.27887,0.009384,0.480096,0.093023,-0.657014
1515649108394,0.105229,0.302465,0.01646,0.430321,0.083043,-0.619428
1515649108404,0.111511,0.319109,0.012047,0.418778,0.038772,-0.557415
1515649108414,0.109325,0.342617,0.008527,0.417818,0.001979,-0.484782
1515649108424,0.112253,0.36519,0.019523,0.411506,-0.011238,-0.416425
1515649108434,0.116148,0.377389,0.035275,0.382924,-0.018061,-0.354386
1515649108444,0.115704,0.384216,0.050111,0.329912,0.000776,-0.296545
1515649108454,0.105345,0.40263,0.076932,0.230203,0.050559,-0.241743
1515649108464,0.091991,0.443783,0.115532,0.090176,0.123765,-0.181463
1515649108474,0.090992,0.494997,0.149376,-0.073139,0.190292,-0.084787
1515649108484,0.095074,0.548928,0.173009,-0.231063,0.220156,0.062082
1515649108494,0.101261,0.595649,0.180535,-0.3645,0.206899,0.277211
1515649108504,0.113163,0.621472,0.187162,-0.479863,0.170961,0.539259
1515649108514,0.115081,0.626555,0.197711,-0.591951,0.092122,0.812027
1515649108524,0.102521,0.611107,0.195579,-0.696504,-0.04014,1.060273
1515649108535,0.077913,0.569845,0.18461,-0.781948,-0.19142,1.266829
1515649108545,0.044453,0.509767,0.163371,-0.832517,-0.305977,1.434769
1515649108555,0.021431,0.434183,0.138626,-0.858889,-0.345298,1.569422
1515649108565,0.012472,0.342239,0.114066,-0.875891,-0.315744,1.648444
1515649108575,0.010457,0.251407,0.090476,-0.885604,-0.234486,1.676136
1515649108585,0.001825,0.180318,0.073395,-0.885832,-0.13474,1.654664
1515649108595,-0.005174,0.136698,0.060338,-0.873326,-0.046565,1.597928
1515649108605,-0.003562,0.113028,0.051073,-0.838504,0.010739,1.514451
1515649108615,0.004631,0.100597,0.032079,-0.767525,0.010281,1.434096
1515649108625,0.025063,0.092579,-0.002034,-0.644502,-0.040482,1.374928
1515649108635,0.052446,0.083452,-0.035994,-0.471623,-0.111617,1.348665
1515649108645,0.065153,0.074995,-0.060685,-0.268976,-0.223466,1.340468
1515649108655,0.06795,0.064696,-0.077381,-0.059917,-0.35679,1.346143
1515649108666,0.068034,0.053829,-0.078305,0.112047,-0.487089,1.36692
1515649108676,0.05529,0.04501,-0.063511,0.238386,-0.590761,1.392129
1515649108686,0.02764,0.034506,-0.04474,0.308562,-0.694571,1.411172
1515649108696,-0.01716,0.013703,-0.022355,0.308575,-0.700984,1.407979
1515649108706,-0.023146,0.010927,0.011436,0.26189,-0.673316,1.41775
1515649108716,-0.034889,-0.024589,0.017083,0.173856,-0.637165,1.420215
1515649108726,-0.040604,-0.057998,0.017746,0.034859,-0.558253,1.411103
1515649108736,-0.045097,-0.083166,0.029983,-0.139218,-0.432204,1.381802
1515649108746,-0.051448,-0.107752,0.025397,-0.329246,-0.281529,1.346133
1515649108756,-0.045528,-0.127831,0.015058,-0.524567,-0.133023,1.312624
1515649108766,-0.033884,-0.135752,-0.005996,-0.694423,0.001589,1.287563
1515649108776,-0.017094,-0.143815,-0.035552,-0.816523,0.107337,1.278342
1515649108786,-0.002322,-0.152276,-0.07794,-0.882368,0.17146,1.271071
1515649108797,0.013396,-0.159351,-0.114395,-0.906841,0.216363,1.27539
1515649108807,0.024619,-0.163375,-0.141641,-0.898422,0.24416,1.292398
1515649108817,0.020827,-0.173953,-0.167344,-0.852877,0.254914,1.311407
1515649108827,0.010149,-0.191788,-0.189275,-0.778647,0.23258,1.32286
1515649108837,-0.006932,-0.211013,-0.210036,-0.681039,0.18037,1.323576
1515649108847,-0.031985,-0.227969,-0.223794,-0.567533,0.125053,1.312487
1515649108857,-0.059327,-0.24709,-0.227416,-0.459303,0.059109,1.28115
1515649108867,-0.084797,-0.268779,-0.22845,-0.361663,-0.012173,1.239194
1515649108877,-0.112503,-0.288413,-0.223445,-0.275726,-0.06413,1.18232
1515649108887,-0.142765,-0.309481,-0.222086,-0.187662,-0.121368,1.111568
1515649108897,-0.157292,-0.341435,-0.229134,-0.094314,-0.171133,1.049324
1515649108907,-0.163528,-0.374259,-0.227902,-0.03813,-0.183666,1.018145
1515649108917,-0.174455,-0.401864,-0.208748,-0.066885,-0.119452,1.014983
1515649108928,-0.197397,-0.427168,-0.179466,-0.177404,0.020551,1.018482
1515649108938,-0.238359,-0.449263,-0.150428,-0.356943,0.221469,1.011529
1515649108948,-0.291023,-0.467044,-0.125453,-0.583255,0.486636,0.983343
1515649108958,-0.355733,-0.471245,-0.111256,-0.805384,0.773464,0.911346
1515649108968,-0.420933,-0.465238,-0.121013,-0.964903,1.014612,0.798582
1515649108978,-0.466981,-0.449944,-0.150465,-1.032073,1.18434,0.668434
1515649108988,-0.487935,-0.439355,-0.182517,-1.01956,1.25905,0.518853
1515649108998,-0.492858,-0.429409,-0.216439,-0.927382,1.249327,0.375444
1515649109008,-0.4811,-0.418244,-0.24292,-0.772512,1.165788,0.247868
1515649109018,-0.464582,-0.410618,-0.269357,-0.566632,1.018081,0.127627
1515649109028,-0.447492,-0.398046,-0.287405,-0.339516,0.853206,0.025462
1515649109038,-0.426622,-0.392597,-0.290504,-0.11453,0.694689,-0.063895
1515649109048,-0.412611,-0.386133,-0.280988,0.088141,0.56395,-0.151055
1515649109058,-0.422359,-0.338743,-0.262079,0.268516,0.452396,-0.231738
1515649109069,-0.436508,-0.258895,-0.229007,0.42658,0.374703,-0.240854
1515649109079,-0.44729,-0.191303,-0.200745,0.585756,0.281636,-0.174171
1515649109089,-0.466418,-0.137861,-0.183656,0.756683,0.152929,-0.043451
1515649109099,-0.490639,-0.104346,-0.169562,0.940391,-0.002588,0.100055
1515649109109,-0.519523,-0.100414,-0.152611,1.118834,-0.179289,0.19131
1515649109119,-0.575652,-0.100027,-0.134378,1.261273,-0.380155,0.165339
1515649109129,-0.64711,-0.085151,-0.115516,1.33163,-0.583796,0.008388
1515649109139,-0.689326,-0.068146,-0.089536,1.335131,-0.75394,-0.245456
1515649109149,-0.680068,-0.061206,-0.066865,1.260067,-0.860993,-0.522523
1515649109159,-0.621649,-0.065152,-0.062273,1.150958,-0.90404,-0.7643
1515649109169,-0.529327,-0.07915,-0.08501,1.073478,-0.869035,-0.955076
1515649109179,-0.446115,-0.088579,-0.123066,1.048893,-0.793244,-1.129048
1515649109189,-0.381806,-0.078723,-0.156018,1.056051,-0.69386,-1.288244
1515649109200,-0.318817,-0.050255,-0.174733,1.066352,-0.576381,-1.421858
1515649109210,-0.251566,-0.017316,-0.181266,1.073444,-0.441913,-1.526661
1515649109220,-0.181732,0.015319,-0.182659,1.093293,-0.323601,-1.606945
1515649109230,-0.10974,0.047123,-0.184507,1.12913,-0.24187,-1.646694
1515649109240,-0.037559,0.073997,-0.189722,1.180973,-0.205231,-1.657641
1515649109250,0.028214,0.094369,-0.200066,1.264734,-0.224349,-1.640896
1515649109260,0.080762,0.109924,-0.212257,1.372957,-0.282016,-1.613534
1515649109270,0.123906,0.127452,-0.219008,1.491846,-0.370727,-1.585111
1515649109280,0.165913,0.133606,-0.21687,1.599078,-0.458418,-1.553438
1515649109290,0.200605,0.129661,-0.211425,1.694633,-0.536523,-1.517457
1515649109300,0.225693,0.121919,-0.206383,1.779496,-0.572903,-1.476142
1515649109310,0.241239,0.119702,-0.187753,1.824014,-0.572998,-1.430434
1515649109320,0.249905,0.11986,-0.15845,1.828213,-0.550672,-1.393123
1515649109331,0.261853,0.120354,-0.128503,1.805913,-0.525234,-1.351431
1515649109341,0.265631,0.118648,-0.110175,1.764532,-0.496665,-1.304325
1515649109351,0.254514,0.128192,-0.08828,1.689211,-0.456318,-1.276302
1515649109361,0.239911,0.148019,-0.061956,1.584185,-0.403113,-1.266311
1515649109371,0.228109,0.160317,-0.038936,1.455809,-0.334878,-1.276523
1515649109381,0.218167,0.16974,-0.025024,1.334856,-0.270825,-1.302772
1515649109391,0.221687,0.18278,-0.024498,1.227668,-0.200373,-1.315211
1515649109401,0.240643,0.198116,-0.01735,1.117301,-0.127909,-1.303089
1515649109411,0.252942,0.214121,-0.016762,1.018684,-0.09308,-1.256814
1515649109421,0.278617,0.220903,-0.028054,0.941333,-0.087246,-1.183911
1515649109431,0.304467,0.224414,-0.032576,0.878878,-0.107162,-1.095026
1515649109441,0.324544,0.229373,-0.033346,0.809031,-0.13784,-1.00076
1515649109451,0.336615,0.233231,-0.032461,0.745588,-0.189922,-0.907561
1515649109462,0.336309,0.237785,-0.041896,0.704407,-0.246234,-0.812313
1515649109472,0.334935,0.240167,-0.046026,0.667405,-0.276734,-0.734197
1515649109482,0.322383,0.243558,-0.039236,0.625073,-0.294258,-0.682765
1515649109492,0.306993,0.247963,-0.026856,0.56255,-0.291333,-0.662222
1515649109502,0.299038,0.247575,-0.020455,0.497908,-0.29049,-0.65554
1515649109512,0.296724,0.250411,-0.015841,0.423687,-0.270389,-0.648844
1515649109522,0.309695,0.260495,-0.006869,0.328241,-0.235417,-0.629266
1515649109532,0.329199,0.277383,-0.004097,0.225373,-0.194214,-0.574441
1515649109542,0.348259,0.295329,-0.010365,0.128843,-0.139267,-0.479102
1515649109552,0.365909,0.311849,-0.014948,0.029102,-0.069393,-0.370957
1515649109562,0.373577,0.334835,-0.015626,-0.071676,-0.006106,-0.231846
1515649109572,0.370399,0.36519,-0.023821,-0.147009,0.052914,-0.081096
1515649109582,0.367804,0.384728,-0.033329,-0.195844,0.108777,0.073817
1515649109592,0.356582,0.404042,-0.040947,-0.230856,0.144311,0.231896
1515649109603,0.330185,0.429201,-0.045219,-0.249928,0.161647,0.396331
1515649109613,0.285212,0.459482,-0.041239,-0.265851,0.189787,0.544731
1515649109623,0.237182,0.482066,-0.031228,-0.278578,0.209456,0.674979
1515649109633,0.196027,0.48189,-0.023445,-0.296616,0.231352,0.78497
1515649109643,0.157264,0.467283,-0.016604,-0.313633,0.270459,0.882123
1515649109653,0.118218,0.454618,-0.004948,-0.324293,0.307505,0.966445
1515649109663,0.060123,0.483393,0.003072,-0.33709,0.349963,1.037968
1515649109673,0.004322,0.549771,0.030977,-0.386976,0.397498,1.143793
1515649109683,-0.045192,0.625515,0.064599,-0.449546,0.434099,1.285979
1515649109693,-0.083705,0.685942,0.085245,-0.515258,0.460745,1.48903
1515649109703,-0.085379,0.677575,0.093955,-0.593621,0.462535,1.72739
1515649109713,-0.07744,0.609431,0.095188,-0.672984,0.43548,1.948712
1515649109723,-0.096832,0.537364,0.084876,-0.765046,0.395801,2.115666
1515649109734,-0.1274,0.46761,0.078182,-0.875233,0.398161,2.220737
1515649109744,-0.165072,0.389661,0.06993,-0.979183,0.448997,2.276622
1515649109754,-0.19602,0.302136,0.054813,-1.060961,0.532245,2.291811
1515649109764,-0.221528,0.211193,0.037727,-1.125778,0.606243,2.238623
1515649109774,-0.252129,0.145335,0.020956,-1.174665,0.656024,2.109615
1515649109784,-0.277548,0.106777,0.005192,-1.193826,0.675097,1.926081
1515649109794,-0.27952,0.088912,-0.014286,-1.162037,0.655768,1.739177
1515649109804,-0.257869,0.07925,-0.039325,-1.07399,0.599894,1.609719
1515649109814,-0.218647,0.06603,-0.063074,-0.942403,0.509531,1.547361
1515649109824,-0.180622,0.04836,-0.080055,-0.789532,0.384676,1.539394
1515649109834,-0.164987,0.025436,-0.093758,-0.614329,0.226589,1.548451
1515649109844,-0.163782,-0.003881,-0.096842,-0.452901,0.067449,1.545824
1515649109854,-0.179842,-0.034183,-0.086532,-0.328644,-0.058452,1.515565
1515649109865,-0.199465,-0.070177,-0.068262,-0.253268,-0.127546,1.451288
1515649109875,-0.214516,-0.114684,-0.050323,-0.222534,-0.139815,1.351905
1515649109885,-0.223905,-0.1571,-0.032308,-0.23961,-0.098513,1.223837
1515649109895,-0.22404,-0.190313,-0.013782,-0.294958,-0.004744,1.07879
1515649109905,-0.215658,-0.214807,-0.000294,-0.368392,0.120067,0.928448
1515649109915,-0.18355,-0.244042,-0.000592,-0.438665,0.255496,0.799424
1515649109925,-0.126112,-0.273433,-0.00458,-0.499371,0.382218,0.703457
1515649109935,-0.074266,-0.28966,-0.00993,-0.54308,0.491715,0.634126
1515649109945,-0.032288,-0.294684,-0.014017,-0.58143,0.577546,0.587215
1515649109955,0.00263,-0.294491,-0.012114,-0.610192,0.640853,0.550967
1515649109965,0.03317,-0.288623,-0.012982,-0.621911,0.664514,0.525377
1515649109975,0.065442,-0.28902,-0.022153,-0.614436,0.63781,0.513637
1515649109985,0.088408,-0.294057,-0.036541,-0.580391,0.57896,0.518899
1515649109996,0.104636,-0.300844,-0.048914,-0.534629,0.493285,0.539091
1515649110006,0.10374,-0.309149,-0.060713,-0.472963,0.403399,0.553885
1515649110016,0.082135,-0.315634,-0.0688,-0.395378,0.302853,0.567555
1515649110026,0.044894,-0.325205,-0.077979,-0.313572,0.208811,0.568391
1515649110036,0.006213,-0.344833,-0.079978,-0.248778,0.139398,0.561797
1515649110046,-0.033611,-0.3658,-0.069927,-0.233828,0.088032,0.558595
1515649110056,-0.092388,-0.375998,-0.06098,-0.274084,0.081535,0.548102
1515649110066,-0.154793,-0.388148,-0.053477,-0.335653,0.123406,0.493876
1515649110076,-0.213818,-0.400295,-0.058285,-0.393058,0.196482,0.415042
1515649110086,-0.259829,-0.409948,-0.073031,-0.444132,0.280382,0.318021
1515649110096,-0.288455,-0.416148,-0.081897,-0.505836,0.377176,0.207155
1515649110106,-0.296473,-0.421636,-0.080076,-0.590872,0.482471,0.096376
1515649110116,-0.285259,-0.418572,-0.077386,-0.674839,0.58554,0.002675
1515649110126,-0.267653,-0.408024,-0.087868,-0.729033,0.644655,-0.067614
1515649110137,-0.250147,-0.397244,-0.107103,-0.747137,0.680175,-0.111344
1515649110147,-0.242774,-0.377205,-0.123427,-0.739752,0.690015,-0.146609
1515649110157,-0.239957,-0.351157,-0.133733,-0.703687,0.672016,-0.168088
1515649110167,-0.246161,-0.323216,-0.143194,-0.650647,0.646517,-0.17896
1515649110177,-0.247263,-0.307181,-0.150283,-0.576372,0.600777,-0.200567
1515649110187,-0.248262,-0.298743,-0.15349,-0.485072,0.52194,-0.235015
1515649110197,-0.255408,-0.282701,-0.159642,-0.375742,0.436733,-0.270599
1515649110207,-0.26665,-0.265729,-0.158218,-0.259007,0.354778,-0.309414
1515649110217,-0.283933,-0.24972,-0.151338,-0.163474,0.277088,-0.35669
1515649110227,-0.318495,-0.189482,-0.13593,-0.093366,0.197218,-0.41133
1515649110237,-0.366997,-0.077754,-0.107651,-0.049795,0.13959,-0.430657
1515649110247,-0.381437,0.011678,-0.084676,-0.03055,0.066628,-0.397558
1515649110257,-0.370293,0.053583,-0.081805,0.000448,-0.044048,-0.314295
1515649110268,-0.352301,0.062644,-0.095131,0.047456,-0.201988,-0.196887
1515649110278,-0.345778,0.041097,-0.1226,0.112539,-0.387713,-0.082721
1515649110288,-0.384765,0.021851,-0.145766,0.179635,-0.533423,-0.042265
1515649110298,-0.453286,0.015171,-0.149952,0.221138,-0.615635,-0.074361
1515649110308,-0.506716,-0.000644,-0.14978,0.225356,-0.616253,-0.162969
1515649110318,-0.544585,-0.013749,-0.143904,0.203982,-0.550264,-0.302789
1515649110328,-0.554799,-0.032032,-0.146076,0.195205,-0.433753,-0.468344
1515649110338,-0.543456,-0.059765,-0.166721,0.234083,-0.307297,-0.666136
1515649110348,-0.52106,-0.079685,-0.192164,0.321712,-0.185923,-0.889746
1515649110358,-0.493743,-0.073681,-0.209163,0.448573,-0.076168,-1.123116
1515649110368,-0.443885,-0.048967,-0.217487,0.605116,0.030328,-1.32992
1515649110378,-0.362393,-0.021851,-0.209292,0.760667,0.116055,-1.454509
1515649110388,-0.270557,0.009106,-0.184903,0.882399,0.169199,-1.510601
1515649110399,-0.197936,0.043388,-0.159321,0.99999,0.181472,-1.537803
1515649110409,-0.153337,0.078573,-0.141103,1.13253,0.144399,-1.543658
1515649110419,-0.115216,0.101029,-0.122024,1.255572,0.090171,-1.552655
1515649110429,-0.076807,0.116316,-0.094594,1.347955,0.002675,-1.568948
1515649110439,-0.03638,0.126954,-0.067975,1.409658,-0.106363,-1.580816
1515649110449,0.006966,0.125472,-0.049175,1.442753,-0.217587,-1.601101
1515649110459,0.043422,0.1351,-0.035644,1.50765,-0.335117,-1.626848
1515649110469,0.083945,0.123775,-0.048682,1.563027,-0.455042,-1.607723
1515649110479,0.122613,0.113989,-0.046628,1.591825,-0.535453,-1.578925
1515649110489,0.164141,0.132595,-0.031228,1.612136,-0.606494,-1.501003
1515649110499,0.195908,0.145067,-0.039085,1.66431,-0.715715,-1.481876
1515649110509,0.182563,0.124139,-0.061529,1.714298,-0.800125,-1.497992
1515649110519,0.173904,0.122733,-0.048146,1.724868,-0.791378,-1.526867
1515649110530,0.179566,0.138867,-0.025961,1.686595,-0.735721,-1.538519
1515649110540,0.198623,0.155052,-0.008106,1.632376,-0.65868,-1.551193
1515649110550,0.22371,0.166875,0.002109,1.556931,-0.566796,-1.545643
1515649110560,0.249006,0.184355,0.020895,1.450723,-0.455845,-1.514374
1515649110570,0.280931,0.202505,0.041762,1.335003,-0.352538,-1.45958
1515649110580,0.313773,0.213286,0.049834,1.226771,-0.279327,-1.38129
1515649110590,0.341939,0.221006,0.051524,1.128144,-0.235101,-1.285926
1515649110600,0.364562,0.230738,0.052907,1.035938,-0.218721,-1.18842
1515649110610,0.379242,0.238234,0.051558,0.97242,-0.235522,-1.08032
1515649110620,0.387151,0.243852,0.046335,0.918465,-0.265092,-0.983988
1515649110630,0.392573,0.244586,0.046772,0.864515,-0.297839,-0.895122
1515649110640,0.394171,0.244822,0.04684,0.807375,-0.326262,-0.815856
1515649110650,0.393473,0.245473,0.04731,0.742792,-0.343939,-0.747247
1515649110660,0.38841,0.245093,0.0514,0.662249,-0.334806,-0.693546
1515649110671,0.386896,0.248493,0.056929,0.564707,-0.307462,-0.6494
1515649110681,0.38484,0.257833,0.064264,0.455464,-0.258779,-0.594557
1515649110691,0.387697,0.273969,0.066815,0.344056,-0.187672,-0.525859
1515649110701,0.403217,0.2845,0.068761,0.225236,-0.117761,-0.436846
1515649110711,0.4128,0.297797,0.070486,0.106458,-0.066111,-0.338201
1515649110721,0.410338,0.31906,0.062331,0.019533,-0.040148,-0.225786
1515649110731,0.402833,0.335463,0.048732,-0.039748,-0.05587,-0.116638
1515649110741,0.388426,0.352152,0.03496,-0.076717,-0.098304,-0.008621
1515649110751,0.37145,0.378479,0.027133,-0.090363,-0.142847,0.106767
1515649110761,0.350036,0.401117,0.021439,-0.106123,-0.190632,0.226442
1515649110771,0.32266,0.419457,0.018556,-0.112361,-0.230922,0.352471
1515649110781,0.289314,0.437263,0.020708,-0.131375,-0.244454,0.476386
1515649110791,0.250643,0.446122,0.030181,-0.175901,-0.222679,0.595027
1515649110802,0.209172,0.441345,0.038748,-0.240572,-0.198706,0.690271
1515649110812,0.152272,0.437716,0.038463,-0.311585,-0.185344,0.761006
1515649110822,0.071314,0.481524,0.038735,-0.387951,-0.147329,0.826395
1515649110832,0.001911,0.551285,0.053782,-0.506745,-0.089154,0.905814
1515649110842,-0.0488,0.61173,0.07418,-0.657407,0.005234,1.008808
1515649110852,-0.100461,0.652596,0.082492,-0.832505,0.128455,1.116143
1515649110862,-0.146541,0.65349,0.078474,-1.016106,0.262418,1.212824
1515649110872,-0.172091,0.625267,0.064399,-1.207148,0.406006,1.308458
1515649110882,-0.194236,0.609504,0.04907,-1.384433,0.561293,1.429635
1515649110892,-0.212439,0.590547,0.037562,-1.538417,0.725089,1.577387
1515649110902,-0.220245,0.539783,0.024381,-1.663781,0.886716,1.747435
1515649110912,-0.219646,0.454776,0.014052,-1.744574,1.018553,1.902386
1515649110922,-0.22903,0.350694,0.003182,-1.772252,1.08342,1.983544
1515649110933,-0.249902,0.235919,-0.010302,-1.745765,1.083617,1.959948
1515649110943,-0.280469,0.13832,-0.019334,-1.692689,1.029728,1.841308
1515649110953,-0.30535,0.074654,-0.028371,-1.610932,0.936628,1.653218
1515649110963,-0.309867,0.032211,-0.043744,-1.484625,0.822363,1.439344
1515649110973,-0.293327,0.002072,-0.066637,-1.283999,0.646102,1.241242
1515649110983,-0.301566,-0.061359,-0.088986,-1.089866,0.524729,0.989729
1515649110993,-0.242291,-0.051117,-0.055239,-0.932942,0.482432,0.972032
1515649111003,-0.132361,0.012436,-0.054505,-0.702632,0.325444,1.008605
1515649111013,-0.073225,-0.06133,-0.115235,-0.411627,0.035883,1.02587
1515649111023,-0.055416,-0.097448,-0.113751,-0.161018,-0.199052,1.021892
1515649111033,-0.057529,-0.098139,-0.068403,-0.007042,-0.342181,1.02675
1515649111043,-0.087106,-0.127885,-0.032446,0.050261,-0.384577,0.968919
1515649111053,-0.127809,-0.1803,0.000935,0.025737,-0.329424,0.851543
1515649111063,-0.143016,-0.22363,0.036221,-0.091141,-0.203762,0.719528
1515649111074,-0.131581,-0.250833,0.062812,-0.263242,-0.022646,0.605828
1515649111084,-0.102394,-0.271687,0.072027,-0.442804,0.179791,0.509209
1515649111094,-0.057432,-0.292734,0.063461,-0.596837,0.341502,0.430675
1515649111104,-0.013198,-0.300064,0.039468,-0.704135,0.455088,0.362678
1515649111114,0.027744,-0.295427,0.012615,-0.763657,0.530184,0.307332
1515649111124,0.067119,-0.286562,-0.011426,-0.769028,0.558226,0.266759
1515649111134,0.103773,-0.275518,-0.039722,-0.735036,0.519805,0.257058
1515649111144,0.134959,-0.273862,-0.07144,-0.652176,0.428933,0.267492
1515649111154,0.150017,-0.281493,-0.098205,-0.536437,0.326349,0.283137
1515649111164,0.152498,-0.284822,-0.109187,-0.408007,0.234532,0.295512
1515649111174,0.130597,-0.288556,-0.115009,-0.281709,0.146024,0.287611
1515649111184,0.099996,-0.296397,-0.113913,-0.158609,0.064031,0.260504
1515649111194,0.085243,-0.302466,-0.099002,-0.070553,0.015124,0.237777
1515649111205,0.076069,-0.300252,-0.07084,-0.037696,0.012003,0.238708
1515649111215,0.069934,-0.295499,-0.039854,-0.044094,0.034346,0.266454
1515649111225,0.055363,-0.292049,-0.020011,-0.072758,0.062953,0.313505
1515649111235,0.041132,-0.300607,-0.000867,-0.128958,0.087075,0.384161
1515649111245,0.014668,-0.320754,0.016051,-0.206338,0.104725,0.450647
1515649111255,-0.028894,-0.337686,0.021121,-0.281601,0.121357,0.507523
1515649111265,-0.08198,-0.349307,0.019796,-0.332509,0.144604,0.541868
1515649111275,-0.142004,-0.355327,0.009026,-0.335639,0.122083,0.544047
1515649111285,-0.212379,-0.356364,-0.013325,-0.300567,0.073059,0.513004
1515649111295,-0.276981,-0.358195,-0.019591,-0.264474,0.036096,0.427502
1515649111305,-0.335155,-0.356799,-0.012269,-0.258099,0.012241,0.2738
1515649111315,-0.3725,-0.352061,-0.008883,-0.281426,-0.002943,0.081793
1515649111325,-0.380786,-0.34266,-0.015316,-0.310087,0.000014,-0.098477
1515649111336,-0.369439,-0.330972,-0.039299,-0.32816,0.012394,-0.228637
1515649111346,-0.349749,-0.309413,-0.07268,-0.319793,0.053522,-0.306644
1515649111356,-0.341058,-0.275402,-0.092338,-0.296642,0.12029,-0.361264
1515649111366,-0.345356,-0.238746,-0.106777,-0.25762,0.197804,-0.412762
1515649111376,-0.340268,-0.223358,-0.108562,-0.237708,0.290313,-0.474871
1515649111386,-0.327786,-0.205669,-0.095817,-0.23575,0.354949,-0.544341
1515649111396,-0.333801,-0.155534,-0.088149,-0.235828,0.383114,-0.606284
1515649111406,-0.355362,-0.06422,-0.078831,-0.226311,0.388665,-0.639421
1515649111416,-0.34745,-0.004856,-0.073214,-0.203956,0.345797,-0.623455
1515649111426,-0.325518,0.003436,-0.085463,-0.133763,0.238576,-0.564914
1515649111436,-0.314559,-0.003806,-0.10983,-0.02004,0.096013,-0.48303
1515649111446,-0.317935,-0.02784,-0.120676,0.106439,-0.064683,-0.409719
1515649111456,-0.34707,-0.050181,-0.121866,0.20637,-0.203871,-0.368343
1515649111467,-0.383589,-0.069381,-0.101704,0.217125,-0.275569,-0.378973
1515649111477,-0.427241,-0.08353,-0.068117,0.136538,-0.259426,-0.441625
1515649111487,-0.455642,-0.096949,-0.049798,0.010164,-0.14995,-0.556501
1515649111497,-0.443433,-0.123331,-0.057876,-0.098252,-0.015723,-0.682161
1515649111507,-0.392728,-0.161054,-0.091757,-0.130279,0.076928,-0.803823
1515649111517,-0.334035,-0.186355,-0.149439,-0.056132,0.078728,-0.90554
1515649111527,-0.293498,-0.174551,-0.203496,0.11352,0.023932,-0.987317
1515649111537,-0.25302,-0.151133,-0.231743,0.31716,-0.06608,-1.076669
1515649111547,-0.210333,-0.115632,-0.230965,0.514474,-0.170088,-1.156367
1515649111557,-0.164907,-0.058612,-0.212714,0.684219,-0.26154,-1.192202
1515649111567,-0.120663,-0.002743,-0.19142,0.822178,-0.351132,-1.190544
1515649111577,-0.079358,0.037611,-0.171488,0.930508,-0.455967,-1.157787
1515649111587,-0.048748,0.066623,-0.159178,1.013411,-0.559951,-1.096102
1515649111597,-0.031151,0.080723,-0.147582,1.048536,-0.621347,-1.009713
1515649111608,-0.026553,0.082267,-0.124191,1.017792,-0.607864,-0.939151
1515649111618,-0.030409,0.068663,-0.100064,0.925455,-0.539678,-0.917499
1515649111628,-0.029753,0.053965,-0.0857,0.808615,-0.419879,-0.948105
1515649111638,-0.033753,0.03945,-0.085826,0.700183,-0.272077,-1.00333
1515649111648,-0.007719,0.027867,-0.093933,0.606554,-0.111277,-1.077849
1515649111658,0.026748,0.01664,-0.101876,0.555381,0.018592,-1.154645
1515649111668,0.075926,0.017567,-0.119043,0.551991,0.106724,-1.21238
1515649111678,0.119918,0.029148,-0.136508,0.607035,0.12951,-1.237189
1515649111688,0.159217,0.052345,-0.141714,0.689709,0.121172,-1.23433
1515649111698,0.18954,0.067294,-0.12583,0.773507,0.086039,-1.228245
1515649111708,0.208299,0.079866,-0.097735,0.848857,0.0359,-1.226369
1515649111718,0.216014,0.093708,-0.067502,0.916791,-0.016379,-1.229792
1515649111728,0.2281,0.101452,-0.030877,0.930677,-0.066645,-1.239395
1515649111739,0.250348,0.111833,0.012086,0.888356,-0.09674,-1.245581
1515649111749,0.273775,0.127782,0.046102,0.804691,-0.118446,-1.23986
1515649111759,0.301466,0.141892,0.06754,0.698743,-0.124272,-1.209513
1515649111769,0.328495,0.15652,0.077227,0.585363,-0.122674,-1.16847
1515649111779,0.346724,0.17639,0.080326,0.473038,-0.116861,-1.112495
1515649111789,0.358723,0.197124,0.07544,0.385097,-0.115314,-1.045943
1515649111799,0.363313,0.216619,0.058334,0.331082,-0.12117,-0.978458
1515649111809,0.36912,0.23501,0.04077,0.298296,-0.141998,-0.903575
1515649111819,0.379545,0.252627,0.033964,0.269767,-0.169251,-0.826572
1515649111829,0.384913,0.271923,0.035287,0.233826,-0.199779,-0.742056
1515649111839,0.386398,0.290183,0.028481,0.196831,-0.232497,-0.648992
1515649111849,0.389578,0.301522,0.02447,0.15346,-0.255622,-0.549511
1515649111859,0.382192,0.315954,0.022691,0.107934,-0.263739,-0.453241
1515649111870,0.373185,0.328327,0.016654,0.049644,-0.249411,-0.353742
1515649111880,0.366838,0.337778,0.013115,-0.020364,-0.207315,-0.243555
1515649111890,0.363771,0.355119,0.01518,-0.104188,-0.146002,-0.127996
1515649111900,0.35555,0.378224,0.01072,-0.181658,-0.081498,-0.003931
1515649111910,0.341908,0.397917,0.001956,-0.235776,-0.035137,0.120059
1515649111920,0.322569,0.412532,-0.015253,-0.255911,-0.021878,0.241813
1515649111930,0.299534,0.431466,-0.026532,-0.257994,-0.025695,0.361374
1515649111940,0.267,0.454084,-0.033073,-0.243065,-0.054157,0.491569
1515649111950,0.227962,0.467596,-0.044229,-0.209044,-0.090055,0.620623
1515649111960,0.188014,0.465051,-0.048637,-0.167639,-0.1119,0.729344
1515649111970,0.139708,0.455188,-0.050362,-0.130504,-0.122966,0.822062
1515649111980,0.074829,0.451092,-0.053793,-0.088126,-0.114529,0.874178
1515649111990,-0.011805,0.474421,-0.054928,-0.031993,-0.099435,0.888863
1515649112001,-0.097301,0.534469,-0.049398,0.019832,-0.052243,0.909928
1515649112011,-0.152531,0.598078,-0.024347,0.038783,0.008612,0.964207
1515649112021,-0.174405,0.645455,0.004671,0.015361,0.067016,1.054962
1515649112031,-0.175206,0.664017,0.030922,-0.061041,0.127237,1.17903
1515649112041,-0.167368,0.661757,0.054126,-0.179833,0.191521,1.322485
1515649112051,-0.160266,0.657109,0.059973,-0.299669,0.249303,1.47983
1515649112061,-0.15758,0.647063,0.053154,-0.387702,0.304911,1.662658
1515649112071,-0.145739,0.613933,0.033599,-0.420577,0.33704,1.860225
1515649112081,-0.13251,0.542457,0.000254,-0.363268,0.318066,2.046799
1515649112091,-0.135651,0.437275,-0.039646,-0.237017,0.266317,2.187221
1515649112101,-0.156504,0.321753,-0.059017,-0.07367,0.202232,2.245312
1515649112111,-0.192681,0.22159,-0.063178,0.096023,0.133289,2.207315
1515649112121,-0.219875,0.135078,-0.04836,0.251948,0.054994,2.103208
1515649112131,-0.237826,0.067488,-0.026441,0.372948,-0.045801,1.977933
1515649112142,-0.24375,0.01985,0.002513,0.44727,-0.125321,1.854973
1515649112152,-0.237601,-0.018377,0.040563,0.471742,-0.182501,1.734325
1515649112162,-0.221555,-0.053954,0.066606,0.478203,-0.237675,1.630822
1515649112172,-0.200769,-0.089901,0.075677,0.478297,-0.288686,1.547629
1515649112182,-0.187758,-0.120226,0.086804,0.445482,-0.31305,1.472018
1515649112192,-0.170502,-0.148716,0.10635,0.357503,-0.30767,1.414748
1515649112202,-0.149237,-0.179556,0.121511,0.232347,-0.262788,1.362924
1515649112212,-0.138572,-0.212912,0.124584,0.09227,-0.180388,1.298308
1515649112222,-0.139366,-0.247402,0.114978,-0.04473,-0.054015,1.226155
1515649112232,-0.133665,-0.276821,0.106485,-0.179649,0.087482,1.130489
1515649112242,-0.128711,-0.299588,0.097271,-0.288025,0.205536,1.025132
1515649112252,-0.115289,-0.322935,0.077184,-0.348587,0.265884,0.918576
1515649112262,-0.087814,-0.341328,0.058824,-0.388909,0.281189,0.833337
1515649112273,-0.056924,-0.351835,0.052666,-0.417538,0.281459,0.761943
1515649112283,-0.029253,-0.358789,0.049702,-0.445062,0.263423,0.709782
1515649112293,-0.009577,-0.3668,0.044427,-0.460933,0.247534,0.663972
1515649112303,0.000915,-0.371728,0.040949,-0.47149,0.225216,0.621349
1515649112313,0.009968,-0.374245,0.036854,-0.480981,0.201749,0.594734
1515649112323,0.016973,-0.37985,0.028954,-0.480932,0.178302,0.57021
1515649112333,0.013554,-0.386941,0.01657,-0.448012,0.14424,0.545562
1515649112343,0.004622,-0.393964,0.0012,-0.404464,0.097326,0.52622
1515649112353,-0.005898,-0.397877,-0.00408,-0.368336,0.051445,0.510113
1515649112363,-0.02661,-0.397696,-0.002389,-0.342792,-0.001949,0.489795
1515649112373,-0.060368,-0.402696,-0.007965,-0.327887,-0.036034,0.45882
1515649112383,-0.092332,-0.406945,-0.002804,-0.337422,-0.041217,0.418305
1515649112393,-0.11769,-0.408517,-0.002608,-0.357574,-0.03785,0.375691
1515649112404,-0.145818,-0.409921,-0.009056,-0.369276,-0.021601,0.333025
1515649112414,-0.173036,-0.418112,-0.021594,-0.37038,-0.008444,0.272172
1515649112424,-0.193079,-0.431123,-0.036464,-0.368281,-0.00701,0.200647
1515649112434,-0.216033,-0.442077,-0.047975,-0.376848,0.023395,0.114187
1515649112444,-0.230872,-0.446883,-0.047515,-0.420497,0.10511,0.029948
1515649112454,-0.235291,-0.445303,-0.040623,-0.501337,0.231723,-0.056324
1515649112464,-0.238553,-0.43188,-0.041004,-0.583246,0.363646,-0.134059
1515649112474,-0.239953,-0.414503,-0.058399,-0.620558,0.456015,-0.202328
1515649112484,-0.244989,-0.388919,-0.092494,-0.590947,0.478828,-0.247316
1515649112494,-0.254584,-0.358125,-0.132528,-0.476412,0.43539,-0.27657
1515649112504,-0.269252,-0.330574,-0.167374,-0.293919,0.331066,-0.301769
1515649112514,-0.287156,-0.307172,-0.195932,-0.067879,0.181875,-0.327097
1515649112524,-0.30937,-0.283466,-0.205696,0.166684,0.010268,-0.364172
1515649112535,-0.349328,-0.253876,-0.194884,0.388439,-0.122679,-0.426861
1515649112545,-0.39177,-0.242425,-0.161793,0.537975,-0.18503,-0.509611
1515649112555,-0.418273,-0.234784,-0.105981,0.572976,-0.209109,-0.601526
1515649112565,-0.465133,-0.170743,-0.048195,0.537938,-0.188367,-0.699604
1515649112575,-0.504948,-0.080909,-0.000343,0.439237,-0.127307,-0.756898
1515649112585,-0.510184,-0.020014,0.029286,0.32997,-0.073039,-0.747959
1515649112595,-0.514019,0.00766,0.024278,0.260022,-0.063836,-0.701774
1515649112605,-0.534753,0.006433,0.010554,0.221975,-0.108966,-0.698353
1515649112615,-0.577755,0.002306,0.005014,0.179689,-0.161267,-0.763218
1515649112625,-0.633177,0.017435,0.012811,0.09811,-0.181278,-0.881324
1515649112635,-0.676697,0.058645,0.023939,-0.039666,-0.190532,-1.0419
1515649112645,-0.686284,0.108753,0.028256,-0.194541,-0.135532,-1.206755
1515649112655,-0.636952,0.11976,0.01434,-0.317649,-0.067707,-1.346142
1515649112665,-0.550666,0.106476,-0.032573,-0.39305,-0.006311,-1.456904
1515649112676,-0.437497,0.073664,-0.076314,-0.427156,0.071206,-1.552921
1515649112686,-0.331313,0.046598,-0.110068,-0.436934,0.169137,-1.645866
1515649112696,-0.242399,0.036716,-0.139057,-0.437251,0.302389,-1.726085
1515649112706,-0.168937,0.045165,-0.156588,-0.432371,0.480601,-1.795705
1515649112716,-0.101725,0.071392,-0.159113,-0.400018,0.699434,-1.830274
1515649112726,-0.042385,0.115035,-0.16796,-0.295475,0.86368,-1.831999
1515649112736,0.006709,0.164834,-0.193841,-0.082541,0.894188,-1.806261
1515649112746,0.060672,0.19246,-0.225161,0.226149,0.754482,-1.750828
1515649112756,0.123356,0.200722,-0.241951,0.564828,0.479595,-1.639853
1515649112766,0.169436,0.200806,-0.232198,0.862292,0.156297,-1.5137
1515649112776,0.183549,0.196869,-0.204618,1.08871,-0.14783,-1.407546
1515649112786,0.175309,0.184175,-0.170897,1.228052,-0.375921,-1.347014
1515649112796,0.152299,0.165546,-0.140854,1.283422,-0.492643,-1.325757
1515649112807,0.13446,0.14359,-0.109962,1.248435,-0.483137,-1.319218
1515649112817,0.132852,0.120844,-0.08692,1.153845,-0.3581,-1.312567
1515649112827,0.137895,0.107471,-0.067872,1.032596,-0.159176,-1.314432
1515649112837,0.148563,0.103774,-0.056432,0.9251,0.050483,-1.312101
1515649112847,0.167544,0.102344,-0.060678,0.864329,0.21628,-1.294968
1515649112857,0.188929,0.110114,-0.069668,0.856726,0.301836,-1.268358
1515649112867,0.208972,0.125186,-0.069427,0.887427,0.319984,-1.236495
1515649112877,0.222572,0.145532,-0.060897,0.937325,0.282449,-1.199302
1515649112887,0.234005,0.165024,-0.048933,0.994713,0.211706,-1.158894
1515649112897,0.247533,0.17844,-0.033482,1.0426,0.125942,-1.119498
1515649112907,0.256043,0.194226,-0.011768,1.074553,0.057271,-1.080054
1515649112917,0.26559,0.204552,0.008971,1.081047,0.001349,-1.034114
1515649112927,0.276773,0.20622,0.03625,1.052496,-0.020355,-0.995544
1515649112938,0.290213,0.209712,0.066531,0.989977,-0.015453,-0.941913
1515649112948,0.303828,0.214472,0.091032,0.903059,0.001128,-0.881786
1515649112958,0.319803,0.214556,0.10577,0.815093,0.012371,-0.82592
1515649112968,0.333924,0.212277,0.114559,0.723968,0.015033,-0.77003
1515649112978,0.346597,0.213909,0.120829,0.632858,0.010228,-0.720535
1515649112988,0.359765,0.219832,0.125322,0.54813,-0.004216,-0.667856
1515649112998,0.371678,0.230082,0.125529,0.469774,-0.025102,-0.608788
1515649113008,0.379984,0.245887,0.124729,0.392474,-0.043853,-0.547593
1515649113018,0.389402,0.262194,0.127901,0.311986,-0.057314,-0.47465
1515649113028,0.399666,0.275689,0.133823,0.22302,-0.068733,-0.386732
1515649113038,0.408191,0.289797,0.138752,0.12344,-0.07269,-0.297709
1515649113048,0.413333,0.302685,0.139776,0.02916,-0.077708,-0.207637
1515649113058,0.414429,0.312854,0.130407,-0.051309,-0.09667,-0.105868
1515649113069,0.421167,0.321201,0.119349,-0.126498,-0.104999,0.015078
1515649113079,0.419448,0.333365,0.110818,-0.212274,-0.117666,0.140344
1515649113089,0.407436,0.351582,0.095961,-0.310734,-0.144321,0.269953
1515649113099,0.390444,0.377385,0.069831,-0.416622,-0.165679,0.407057
1515649113109,0.368489,0.406395,0.028839,-0.518307,-0.170948,0.543056
1515649113119,0.333048,0.443042,-0.014415,-0.555415,-0.143043,0.725703
1515649113129,0.264107,0.488653,-0.070145,-0.453779,-0.078452,0.939734
1515649113139,0.175305,0.47849,-0.124143,-0.168803,-0.022855,1.13378
1515649113149,0.04351,0.466586,-0.157708,0.202255,-0.090672,1.205928
1515649113159,-0.0961,0.506226,-0.112334,0.500363,-0.243953,1.184567
1515649113169,-0.184264,0.557343,-0.004724,0.641709,-0.428793,1.167119
1515649113179,-0.24325,0.608983,0.088975,0.595482,-0.60679,1.168606
1515649113189,-0.245855,0.621963,0.167699,0.350858,-0.676241,1.198558
1515649113199,-0.199344,0.604658,0.231921,-0.087954,-0.621164,1.277214
1515649113210,-0.157521,0.602098,0.253726,-0.599147,-0.41245,1.441376
1515649113220,-0.142838,0.626979,0.215217,-1.024706,-0.107377,1.670164
1515649113230,-0.152577,0.637121,0.131754,-1.291304,0.195877,1.929234
1515649113240,-0.153633,0.585714,0.040915,-1.378669,0.433289,2.179078
1515649113250,-0.157587,0.494082,-0.037505,-1.35657,0.518289,2.334718
1515649113260,-0.173426,0.389021,-0.081995,-1.284421,0.482905,2.383554
1515649113270,-0.192191,0.292559,-0.10032,-1.177126,0.35916,2.340555
1515649113280,-0.219683,0.228503,-0.116463,-1.064467,0.199297,2.238872
1515649113290,-0.238842,0.188519,-0.124397,-0.958214,0.058805,2.115846
1515649113300,-0.245597,0.163396,-0.130877,-0.845792,0.002967,1.993753
1515649113310,-0.240563,0.139082,-0.137051,-0.749391,0.001798,1.856716
1515649113320,-0.220862,0.116829,-0.142975,-0.659437,0.039242,1.70685
1515649113330,-0.186699,0.087869,-0.156774,-0.528202,0.09922,1.574925
1515649113341,-0.149402,0.059563,-0.180645,-0.358791,0.147485,1.451392
1515649113351,-0.101508,0.032842,-0.190208,-0.185105,0.18377,1.369485
1515649113361,-0.04561,-0.00754,-0.184824,-0.026243,0.219797,1.330336
1515649113371,-0.004276,-0.050735,-0.162219,0.091297,0.25458,1.300971
1515649113381,0.013554,-0.087961,-0.126461,0.13779,0.309569,1.259076
1515649113391,0.02187,-0.127845,-0.075362,0.087711,0.42952,1.237792
1515649113401,0.01413,-0.184989,-0.003695,-0.086726,0.719375,1.23177
1515649113411,-0.046887,-0.279447,0.12084,-0.405883,1.281888,1.248435
1515649113421,-0.140429,-0.334116,0.287992,-0.910704,1.93525,1.197469
1515649113431,-0.188486,-0.317798,0.346121,-1.393892,2.377218,1.011119
1515649113441,-0.203262,-0.30307,0.279188,-1.649481,2.439967,0.735677
1515649113451,-0.152974,-0.308525,0.117478,-1.614972,2.145591,0.490399
1515649113461,-0.107346,-0.324758,-0.028196,-1.3776,1.653197,0.328827
1515649113472,-0.059007,-0.307536,-0.122224,-1.059603,1.129566,0.249138
1515649113482,-0.020254,-0.286373,-0.166521,-0.74176,0.680645,0.226996
1515649113492,-0.003575,-0.281277,-0.182371,-0.480303,0.334263,0.233787
1515649113502,0.003234,-0.283754,-0.172112,-0.3156,0.136343,0.27496
1515649113512,-0.00565,-0.308111,-0.139922,-0.298612,0.127557,0.328267
1515649113522,-0.039388,-0.326827,-0.084884,-0.409166,0.283605,0.337082
1515649113532,-0.082657,-0.33395,-0.047289,-0.568693,0.536154,0.301158
1515649113542,-0.111078,-0.355036,-0.048443,-0.717565,0.760997,0.241738
1515649113552,-0.124605,-0.378184,-0.092307,-0.790068,0.955986,0.199105
1515649113562,-0.133374,-0.392567,-0.127063,-0.804197,1.111403,0.177623
1515649113572,-0.146187,-0.400909,-0.146782,-0.777876,1.184492,0.146465
1515649113582,-0.160689,-0.406573,-0.162637,-0.689921,1.179597,0.106602
1515649113592,-0.186287,-0.421076,-0.165968,-0.561487,1.078451,0.056016
1515649113603,-0.197811,-0.435013,-0.166868,-0.407395,0.876688,0.002241
1515649113613,-0.219998,-0.443137,-0.15832,-0.242636,0.644933,-0.046207
1515649113623,-0.245939,-0.449852,-0.139373,-0.112881,0.427025,-0.099857
1515649113633,-0.258678,-0.454685,-0.115715,-0.040485,0.271054,-0.146934
1515649113643,-0.278485,-0.454208,-0.084909,-0.019108,0.183509,-0.196016
1515649113653,-0.293632,-0.453586,-0.055326,-0.050857,0.15908,-0.257761
1515649113663,-0.300185,-0.456837,-0.02332,-0.121929,0.183886,-0.333273
1515649113673,-0.301221,-0.445812,-0.016291,-0.180377,0.250467,-0.399284
1515649113683,-0.302452,-0.423837,-0.024355,-0.198531,0.309509,-0.433437
1515649113693,-0.301481,-0.406859,-0.032626,-0.187978,0.32575,-0.461254
1515649113703,-0.315893,-0.392984,-0.046997,-0.149833,0.322864,-0.504109
1515649113713,-0.347747,-0.382845,-0.04675,-0.114941,0.352158,-0.556597
1515649113723,-0.374542,-0.365505,-0.018055,-0.124597,0.396456,-0.636665
1515649113733,-0.386546,-0.341012,0.013742,-0.158625,0.439689,-0.732641
1515649113744,-0.394021,-0.303265,0.025077,-0.180959,0.466817,-0.814769
1515649113754,-0.403799,-0.218728,0.037573,-0.196774,0.425235,-0.864814
1515649113764,-0.393614,-0.118742,0.031277,-0.184848,0.3073,-0.841235
1515649113774,-0.358307,-0.060043,0.016817,-0.096523,0.15272,-0.728272
1515649113784,-0.326969,-0.039445,-0.00183,0.040665,-0.049083,-0.569564
1515649113794,-0.317125,-0.030049,-0.005026,0.143021,-0.309958,-0.402101
1515649113804,-0.326452,-0.032954,-0.000074,0.157565,-0.640501,-0.282201
1515649113814,-0.357661,-0.065902,-0.018806,0.122121,-0.903102,-0.281717
1515649113824,-0.383021,-0.110989,-0.046644,0.05666,-1.01861,-0.361347
1515649113834,-0.378908,-0.140518,-0.082962,-0.009052,-1.025717,-0.479539
1515649113844,-0.366363,-0.153621,-0.147615,-0.017764,-0.938139,-0.64399
1515649113854,-0.342663,-0.140453,-0.206904,0.025301,-0.787098,-0.827953
1515649113864,-0.32399,-0.081167,-0.252182,0.100145,-0.628567,-0.990714
1515649113875,-0.284151,-0.00438,-0.282554,0.213194,-0.488476,-1.085302
1515649113885,-0.231535,0.082875,-0.306503,0.360208,-0.363692,-1.097827
1515649113895,-0.166735,0.144793,-0.316707,0.559291,-0.295963,-1.025107
1515649113905,-0.10108,0.182905,-0.328536,0.801207,-0.419163,-0.881888
1515649113915,-0.049814,0.208632,-0.329746,1.111103,-0.617964,-0.791172
1515649113925,-0.053053,0.217603,-0.335413,1.414825,-0.904438,-0.740875
1515649113935,-0.054099,0.203336,-0.303576,1.661238,-1.161726,-0.77683
1515649113945,-0.107742,0.184189,-0.249455,1.803371,-1.232612,-0.871278
1515649113955,-0.114064,0.180874,-0.18477,1.800051,-1.178648,-0.952451
1515649113965,-0.081966,0.172045,-0.117005,1.69163,-1.037178,-1.026883
1515649113975,-0.053256,0.155097,-0.071247,1.551362,-0.869115,-1.081997
1515649113985,-0.004728,0.155774,-0.039183,1.418532,-0.7096,-1.137134
1515649113995,0.023662,0.155461,-0.008733,1.315391,-0.559547,-1.210534
1515649114006,0.066247,0.17334,0.012056,1.245153,-0.429934,-1.247755
1515649114016,0.115929,0.181045,0.036211,1.186506,-0.269344,-1.259442
1515649114026,0.158055,0.187955,0.078661,1.08643,-0.061763,-1.265679
1515649114036,0.204146,0.211658,0.138843,0.915361,0.145541,-1.258807
1515649114046,0.242671,0.224363,0.182248,0.715761,0.316331,-1.251764
1515649114056,0.277298,0.234596,0.204945,0.530054,0.434658,-1.243648
1515649114066,0.310007,0.247453,0.211218,0.354057,0.477932,-1.218401
1515649114076,0.345473,0.257861,0.208572,0.199385,0.466427,-1.152617
1515649114086,0.36814,0.271246,0.192341,0.089312,0.417392,-1.053886
1515649114096,0.37503,0.287217,0.168373,0.022775,0.329871,-0.945689
1515649114106,0.371508,0.29192,0.137199,0.012424,0.230776,-0.846254
1515649114116,0.358916,0.291121,0.10765,0.076144,0.175938,-0.768535
1515649114126,0.343797,0.292395,0.095736,0.164194,0.136391,-0.734704
1515649114137,0.346643,0.289209,0.106609,0.206632,0.117079,-0.703907
1515649114147,0.370977,0.289467,0.139719,0.178029,0.119909,-0.644014
1515649114157,0.389975,0.297597,0.171937,0.110233,0.117199,-0.57114
1515649114167,0.408153,0.301854,0.186621,0.0351,0.079074,-0.490717
1515649114177,0.418537,0.304286,0.186978,-0.033617,0.01832,-0.380407
1515649114187,0.421298,0.309799,0.182986,-0.093854,-0.040409,-0.241316
1515649114197,0.41763,0.315752,0.177952,-0.143489,-0.101233,-0.105472
1515649114207,0.398713,0.319711,0.162375,-0.163463,-0.160769,0.004629
1515649114217,0.36728,0.325365,0.141631,-0.149548,-0.212638,0.101766
1515649114227,0.33629,0.328776,0.125144,-0.108084,-0.264377,0.18918
1515649114237,0.31005,0.324493,0.112606,-0.070858,-0.319286,0.264881
1515649114247,0.279647,0.316761,0.11242,-0.059087,-0.365545,0.309719
1515649114257,0.251155,0.309526,0.116333,-0.070695,-0.382924,0.35035
1515649114267,0.237467,0.303689,0.121211,-0.11315,-0.34688,0.401721
1515649114278,0.226833,0.301588,0.124855,-0.17158,-0.273465,0.469122
1515649114288,0.222163,0.294894,0.122769,-0.214121,-0.19681,0.540722
1515649114298,0.208319,0.284016,0.113715,-0.232182,-0.168321,0.617618
1515649114308,0.185386,0.268725,0.094111,-0.212006,-0.179336,0.690128
1515649114318,0.161003,0.252121,0.083304,-0.162097,-0.220176,0.745471
1515649114328,0.12313,0.238374,0.077361,-0.117475,-0.269448,0.769892
1515649114338,0.064835,0.24628,0.082238,-0.112062,-0.322873,0.744317
1515649114348,-0.020624,0.33274,0.101747,-0.178844,-0.317504,0.701899
1515649114358,-0.077717,0.458787,0.138705,-0.32627,-0.256959,0.718462
1515649114368,-0.089141,0.566416,0.156136,-0.523543,-0.169123,0.818462
1515649114378,-0.083604,0.649069,0.143292,-0.739924,-0.057157,1.009243
1515649114388,-0.042487,0.664569,0.121247,-0.943564,0.051294,1.268285
1515649114398,0.000469,0.622018,0.078439,-1.100442,0.099839,1.53681
1515649114409,-0.002185,0.567581,0.015228,-1.19786,0.095047,1.794472
1515649114419,-0.019671,0.485254,-0.041496,-1.246488,0.068004,2.031675
1515649114429,-0.057564,0.366691,-0.110714,-1.226207,0.01803,2.182153
1515649114439,-0.121408,0.251982,-0.19374,-1.097838,-0.04593,2.19449
1515649114449,-0.199123,0.159461,-0.262173,-0.879485,-0.083325,2.090068
1515649114459,-0.280299,0.123419,-0.29334,-0.659161,-0.064538,1.892705
1515649114469,-0.329199,0.134814,-0.272087,-0.460119,-0.008204,1.67297
1515649114479,-0.339182,0.104636,-0.238449,-0.382001,0.10134,1.452618
1515649114489,-0.279598,0.170101,-0.176914,-0.415317,0.297848,1.34364
1515649114499,-0.190196,0.134239,-0.135044,-0.362445,0.353487,1.390307
1515649114509,-0.188035,0.042605,-0.186456,-0.327605,0.409395,1.371943
1515649114519,-0.167065,0.060486,-0.148356,-0.332976,0.439479,1.351649
1515649114529,-0.120387,0.038105,-0.104487,-0.370086,0.456173,1.419032
1515649114540,-0.111713,-0.009201,-0.125521,-0.369019,0.448831,1.388085
1515649114550,-0.113941,-0.044754,-0.120492,-0.376467,0.454543,1.312325
1515649114560,-0.117408,-0.094558,-0.104499,-0.389161,0.43876,1.247285
1515649114570,-0.138046,-0.133214,-0.114093,-0.395633,0.478883,1.146927
1515649114580,-0.141492,-0.17103,-0.097879,-0.403334,0.58886,1.00273
1515649114590,-0.097811,-0.210934,-0.082174,-0.442857,0.718875,0.903469
1515649114600,-0.085711,-0.249517,-0.071284,-0.517344,0.848694,0.822503
1515649114610,-0.041616,-0.259048,-0.048159,-0.611944,0.972909,0.778988
1515649114620,0.001385,-0.26236,-0.029898,-0.687335,1.039281,0.745064
1515649114630,0.022552,-0.278805,-0.040557,-0.709566,1.028553,0.734499
1515649114640,0.056172,-0.297827,-0.049994,-0.692541,0.997502,0.740869
1515649114650,0.073496,-0.313586,-0.045587,-0.677615,0.958897,0.756865
1515649114660,0.080523,-0.326774,-0.039234,-0.648871,0.902066,0.783499
1515649114671,0.078309,-0.340699,-0.041475,-0.589373,0.83567,0.813216
1515649114681,0.065049,-0.354394,-0.043583,-0.510734,0.736223,0.821547
1515649114691,0.039217,-0.361111,-0.053624,-0.408725,0.608096,0.794587
1515649114701,0.012864,-0.375909,-0.055958,-0.296106,0.472604,0.747309
1515649114711,-0.002872,-0.392512,-0.05652,-0.203627,0.340226,0.707587
1515649114721,-0.020401,-0.397253,-0.058787,-0.11117,0.218493,0.681728
1515649114731,-0.035542,-0.394886,-0.058869,-0.025107,0.114897,0.667615
1515649114741,-0.050505,-0.392894,-0.055848,0.040819,0.014429,0.658914
1515649114751,-0.074641,-0.390847,-0.059777,0.106727,-0.078579,0.657681
1515649114761,-0.105492,-0.389357,-0.060872,0.151324,-0.122261,0.635135
1515649114771,-0.150991,-0.38531,-0.055672,0.168314,-0.142364,0.594527
1515649114781,-0.197887,-0.383547,-0.061967,0.192672,-0.143086,0.538925
1515649114791,-0.240245,-0.379266,-0.073045,0.226547,-0.135122,0.466188
1515649114801,-0.274471,-0.369702,-0.082017,0.247711,-0.128244,0.389229
1515649114812,-0.29608,-0.352147,-0.088519,0.277383,-0.137403,0.310127
1515649114822,-0.316844,-0.327881,-0.102331,0.336749,-0.156126,0.233045
1515649114832,-0.327405,-0.307649,-0.117399,0.413094,-0.185537,0.161241
1515649114842,-0.330258,-0.288637,-0.122044,0.494762,-0.226742,0.093705
1515649114852,-0.327787,-0.267796,-0.125033,0.571135,-0.265898,0.042193
1515649114862,-0.326427,-0.251979,-0.120775,0.645325,-0.276137,-0.008281
1515649114872,-0.333059,-0.239252,-0.10276,0.67381,-0.226463,-0.069306
1515649114882,-0.331952,-0.227174,-0.07129,0.647097,-0.134067,-0.136555
1515649114892,-0.329835,-0.211679,-0.045351,0.597035,-0.026721,-0.207991
1515649114902,-0.320691,-0.20822,-0.033392,0.536373,0.080613,-0.283649
1515649114912,-0.310727,-0.207373,-0.021898,0.469359,0.184784,-0.373154
1515649114922,-0.301806,-0.200285,-0.012042,0.403411,0.283696,-0.481869
1515649114932,-0.286061,-0.188723,-0.006317,0.355594,0.331237,-0.590598
1515649114943,-0.290722,-0.142875,-0.013122,0.334403,0.317821,-0.70577
1515649114953,-0.33126,-0.018943,-0.01224,0.316427,0.293476,-0.776111
1515649114963,-0.352461,0.124226,0.014037,0.247606,0.269613,-0.758711
1515649114973,-0.365336,0.229435,0.028315,0.162962,0.221732,-0.661157
1515649114983,-0.374195,0.267707,0.019209,0.11548,0.143846,-0.540244
1515649114993,-0.392801,0.247967,-0.011572,0.131694,0.008558,-0.47183
1515649115003,-0.434038,0.191375,-0.046641,0.170151,-0.13363,-0.510241
1515649115013,-0.477763,0.128101,-0.041576,0.142735,-0.209095,-0.647723
1515649115023,-0.496403,0.075262,-0.014177,0.047236,-0.174076,-0.852295
1515649115033,-0.482343,0.020753,0.005156,-0.071786,-0.052025,-1.120922
1515649115043,-0.437806,-0.03144,0.005516,-0.168677,0.122769,-1.424939
1515649115053,-0.381986,-0.03201,0.010215,-0.24555,0.350025,-1.709888
1515649115063,-0.324501,0.033871,0.03547,-0.294933,0.610244,-1.928812
1515649115074,-0.258427,0.136599,0.06699,-0.30501,0.837989,-2.057141
1515649115084,-0.174667,0.225164,0.092986,-0.267124,0.951848,-2.092672
1515649115094,-0.098108,0.28491,0.105645,-0.187554,0.91541,-2.042798
1515649115104,-0.050935,0.330036,0.125431,-0.086504,0.754568,-1.955502
1515649115114,-0.026598,0.359561,0.147365,0.009459,0.499423,-1.866999
1515649115124,-0.033274,0.355801,0.165836,0.063127,0.2004,-1.813487
1515649115134,-0.050532,0.327029,0.187762,0.05848,-0.090011,-1.803497
1515649115144,-0.061853,0.297655,0.20933,-0.027961,-0.294808,-1.82315
1515649115154,-0.080538,0.27522,0.22855,-0.180449,-0.346492,-1.862995
1515649115164,-0.098565,0.255949,0.231216,-0.368189,-0.272898,-1.909251
1515649115174,-0.097906,0.23318,0.216029,-0.542404,-0.086766,-1.955705
1515649115184,-0.094753,0.223014,0.196355,-0.668064,0.183162,-2.018484
1515649115194,-0.078948,0.235884,0.1789,-0.758728,0.441388,-2.077127
1515649115205,-0.03797,0.254978,0.163605,-0.800497,0.637353,-2.082527
1515649115215,0.000207,0.278784,0.155188,-0.796528,0.765576,-2.01119
1515649115225,0.02582,0.312106,0.153607,-0.757426,0.820043,-1.952722
1515649115235,0.052072,0.328899,0.151474,-0.663054,0.795553,-1.926409
1515649115245,0.074657,0.333122,0.144224,-0.546265,0.699287,-1.88836
1515649115255,0.093347,0.341403,0.14917,-0.43788,0.567752,-1.872647
1515649115265,0.112577,0.344824,0.164467,-0.354993,0.464082,-1.873939
1515649115275,0.134566,0.349415,0.192763,-0.312509,0.424403,-1.840981
1515649115285,0.163605,0.367111,0.228879,-0.315655,0.417609,-1.769446
1515649115295,0.190535,0.370418,0.260064,-0.34318,0.415981,-1.674329
1515649115305,0.208409,0.374583,0.279329,-0.381265,0.397194,-1.582348
1515649115315,0.21905,0.395977,0.300184,-0.423617,0.391262,-1.492499
1515649115325,0.234926,0.410674,0.321774,-0.477538,0.347678,-1.379068
1515649115335,0.24821,0.419265,0.331956,-0.534583,0.280509,-1.264529
1515649115346,0.255349,0.428923,0.34224,-0.591601,0.199508,-1.169188
1515649115356,0.265797,0.429466,0.349015,-0.662365,0.105567,-1.065232
1515649115366,0.275688,0.426062,0.352561,-0.753289,0.02335,-0.961204
1515649115376,0.281304,0.42547,0.353999,-0.846378,-0.039525,-0.87
1515649115386,0.278227,0.423894,0.342106,-0.928898,-0.091579,-0.793798
1515649115396,0.278161,0.429097,0.320165,-0.982851,-0.12528,-0.728415
1515649115406,0.284519,0.438041,0.296481,-1.00501,-0.158932,-0.653564
1515649115416,0.296303,0.440854,0.267548,-1.001741,-0.189369,-0.563879
1515649115426,0.309628,0.438928,0.248242,-0.990024,-0.206978,-0.463567
1515649115436,0.31915,0.437351,0.241582,-0.987856,-0.219204,-0.373901
1515649115446,0.325813,0.431553,0.232887,-0.976177,-0.219616,-0.28429
1515649115456,0.332385,0.421637,0.229259,-0.982533,-0.211491,-0.198881
1515649115466,0.34014,0.419454,0.233727,-1.003747,-0.1927,-0.112357
1515649115477,0.349422,0.417611,0.237272,-1.033456,-0.165424,-0.014065
1515649115487,0.354316,0.412313,0.234866,-1.063147,-0.145647,0.084236
1515649115497,0.357384,0.406469,0.235029,-1.103449,-0.119489,0.185777
1515649115507,0.35874,0.408411,0.244981,-1.156426,-0.110577,0.300204
1515649115517,0.357704,0.404903,0.240263,-1.199755,-0.149912,0.427457
1515649115527,0.349602,0.390972,0.222516,-1.226073,-0.215944,0.547204
1515649115537,0.33472,0.371184,0.201554,-1.2375,-0.305523,0.671182
1515649115547,0.304925,0.357862,0.174966,-1.226681,-0.392789,0.774779
1515649115557,0.254476,0.346062,0.15179,-1.194709,-0.465931,0.851587
1515649115567,0.199433,0.330943,0.133718,-1.165944,-0.530352,0.896377
1515649115577,0.138211,0.323028,0.127178,-1.172215,-0.566905,0.917797
1515649115587,0.06405,0.340394,0.124479,-1.205072,-0.564786,0.902988
1515649115597,-0.007895,0.394511,0.124019,-1.285693,-0.530553,0.864863
1515649115608,-0.067381,0.478563,0.125535,-1.409801,-0.476212,0.850383
1515649115618,-0.103123,0.559296,0.114339,-1.556148,-0.423248,0.88403
1515649115628,-0.109105,0.617258,0.092376,-1.710946,-0.374878,0.974289
1515649115638,-0.092308,0.655906,0.052631,-1.828531,-0.377039,1.122093
1515649115648,-0.07519,0.648579,-0.012531,-1.845272,-0.456079,1.278103
1515649115658,-0.064391,0.600646,-0.086795,-1.817431,-0.567207,1.449973
1515649115668,-0.072956,0.550532,-0.118412,-1.860659,-0.649532,1.603969
1515649115678,-0.093022,0.514785,-0.120585,-2.002558,-0.681574,1.713489
1515649115688,-0.108885,0.455756,-0.144377,-2.157385,-0.621375,1.795192
1515649115698,-0.126187,0.367479,-0.197063,-2.245637,-0.481586,1.855167
1515649115708,-0.144201,0.265159,-0.261848,-2.241829,-0.286682,1.875187
1515649115718,-0.161617,0.158216,-0.317567,-2.143793,-0.062208,1.823253
1515649115728,-0.189829,0.084749,-0.343672,-1.989568,0.141395,1.693188
1515649115739,-0.222727,0.063384,-0.346846,-1.840518,0.28524,1.511983
1515649115749,-0.233219,0.073221,-0.32282,-1.724226,0.388285,1.328831
1515649115759,-0.212185,0.080695,-0.285718,-1.629002,0.439615,1.190667
1515649115769,-0.170673,0.083636,-0.254851,-1.549546,0.44019,1.123085
1515649115779,-0.125793,0.082468,-0.22555,-1.484806,0.396426,1.129268
1515649115789,-0.096293,0.071343,-0.203204,-1.438016,0.32675,1.164379
1515649115799,-0.079413,0.046722,-0.185511,-1.411381,0.266651,1.200632
1515649115809,-0.071085,0.010154,-0.164962,-1.430386,0.239672,1.228495
1515649115819,-0.07419,-0.027005,-0.145723,-1.490875,0.280144,1.240444
1515649115829,-0.088386,-0.053084,-0.127007,-1.585447,0.394545,1.231103
1515649115839,-0.105513,-0.074373,-0.111801,-1.710846,0.549716,1.19195
1515649115849,-0.120759,-0.095177,-0.107963,-1.818255,0.715732,1.137758
1515649115859,-0.119587,-0.118897,-0.112798,-1.889635,0.879744,1.077016
1515649115869,-0.109299,-0.144319,-0.120448,-1.937637,1.013821,1.017285
1515649115880,-0.097741,-0.156374,-0.121243,-1.967504,1.094394,0.955403
1515649115890,-0.079487,-0.162198,-0.121789,-1.968611,1.111774,0.907348
1515649115900,-0.061126,-0.169275,-0.136053,-1.91869,1.057412,0.881586
1515649115910,-0.045022,-0.17774,-0.159933,-1.810377,0.955922,0.887659
1515649115920,-0.032957,-0.19073,-0.181765,-1.656395,0.811626,0.911732
1515649115930,-0.034499,-0.208676,-0.199526,-1.474837,0.656731,0.929295
1515649115940,-0.061359,-0.226605,-0.204713,-1.289069,0.510558,0.919078
1515649115950,-0.102704,-0.248609,-0.19251,-1.111876,0.40417,0.874694
1515649115960,-0.126597,-0.271619,-0.172872,-0.967622,0.337358,0.823994
1515649115970,-0.146091,-0.291109,-0.146762,-0.867943,0.302544,0.775574
1515649115980,-0.159772,-0.310602,-0.116088,-0.815005,0.317953,0.725162
1515649115990,-0.16772,-0.325258,-0.075794,-0.82472,0.392079,0.679215
1515649116000,-0.173643,-0.338153,-0.040058,-0.881076,0.474572,0.646263
1515649116011,-0.17776,-0.353571,-0.025318,-0.951215,0.560242,0.612301
1515649116021,-0.183754,-0.369988,-0.014534,-1.011799,0.63842,0.582575
1515649116031,-0.188355,-0.374964,-0.014899,-1.053245,0.688768,0.559207
1515649116041,-0.197688,-0.376578,-0.029589,-1.034179,0.691026,0.547382
1515649116051,-0.210463,-0.383451,-0.056295,-0.945046,0.63668,0.541733
1515649116061,-0.231651,-0.394099,-0.07553,-0.820892,0.558901,0.529559
1515649116071,-0.251922,-0.398521,-0.073112,-0.710525,0.485399,0.511033
1515649116081,-0.265489,-0.406558,-0.061527,-0.628762,0.407561,0.485165
1515649116091,-0.28369,-0.420028,-0.053783,-0.566089,0.335103,0.44336
1515649116101,-0.310202,-0.427743,-0.045719,-0.521501,0.291635,0.378114
1515649116111,-0.331998,-0.424385,-0.0352,-0.503436,0.262059,0.30442
1515649116121,-0.342685,-0.420758,-0.033458,-0.49918,0.248426,0.247848
1515649116131,-0.347368,-0.417403,-0.038942,-0.492836,0.250747,0.215799
1515649116142,-0.348225,-0.408033,-0.056796,-0.457844,0.238113,0.192182
1515649116152,-0.360003,-0.398611,-0.087062,-0.384683,0.214949,0.15454
1515649116162,-0.381691,-0.383046,-0.111925,-0.281854,0.190894,0.098627
1515649116172,-0.393317,-0.371337,-0.129878,-0.157832,0.165901,0.028748
1515649116182,-0.401288,-0.370039,-0.145663,0.003297,0.130412,-0.062623
1515649116192,-0.404906,-0.36889,-0.157025,0.184541,0.10048,-0.18184
1515649116202,-0.415938,-0.362084,-0.151198,0.3562,0.088881,-0.330925
1515649116212,-0.460651,-0.305156,-0.125687,0.496074,0.072998,-0.499084
1515649116222,-0.499678,-0.197939,-0.078953,0.587174,0.074924,-0.615821
1515649116232,-0.492973,-0.117325,-0.027138,0.639175,0.037715,-0.642681
1515649116242,-0.480937,-0.07651,-0.001694,0.685991,-0.042706,-0.601152
1515649116252,-0.479324,-0.067528,0.020352,0.724393,-0.150029,-0.541406
1515649116262,-0.495656,-0.067836,0.044156,0.692811,-0.239236,-0.503801
1515649116273,-0.529281,-0.084764,0.083597,0.581688,-0.307944,-0.542732
1515649116283,-0.579077,-0.093778,0.10782,0.388888,-0.351696,-0.693424
1515649116293,-0.609023,-0.099302,0.113367,0.134367,-0.284971,-0.905901
1515649116303,-0.596452,-0.115765,0.120733,-0.128939,-0.082195,-1.120644
1515649116313,-0.561286,-0.118208,0.09691,-0.359532,0.182794,-1.330267
1515649116323,-0.509969,-0.106987,0.048383,-0.493676,0.44155,-1.521081
1515649116333,-0.445332,-0.092616,-0.008581,-0.529145,0.647895,-1.670619
1515649116343,-0.381226,-0.054212,-0.059596,-0.471152,0.764378,-1.79056
1515649116353,-0.312306,-0.004668,-0.0964,-0.333496,0.801653,-1.877655
1515649116363,-0.242525,0.034757,-0.123827,-0.126778,0.761733,-1.912644
1515649116373,-0.183352,0.07334,-0.13504,0.103412,0.65525,-1.906019
1515649116383,-0.140103,0.105561,-0.127486,0.330565,0.4886,-1.867287
1515649116393,-0.115429,0.12738,-0.114859,0.550358,0.296247,-1.834897
1515649116403,-0.118106,0.140247,-0.09668,0.743666,0.096473,-1.834404
1515649116414,-0.122352,0.145009,-0.069588,0.888201,-0.091576,-1.850799
1515649116424,-0.112751,0.141916,-0.041128,0.969054,-0.235854,-1.874446
1515649116434,-0.09622,0.137969,-0.009492,0.979762,-0.287136,-1.896846
1515649116444,-0.078804,0.135451,0.028005,0.907631,-0.257237,-1.920058
1515649116454,-0.060717,0.136095,0.059269,0.800401,-0.170678,-1.939982
1515649116464,-0.037752,0.131984,0.070613,0.683593,-0.063795,-1.95883
1515649116474,-0.014008,0.140704,0.078885,0.571047,0.034483,-1.968083
1515649116484,0.009995,0.155109,0.079205,0.491398,0.111389,-1.968906
1515649116494,0.037575,0.17039,0.073313,0.444656,0.163703,-1.960231
1515649116504,0.054131,0.18828,0.07086,0.419202,0.174309,-1.953732
1515649116514,0.071221,0.208501,0.068565,0.410766,0.157082,-1.941932
1515649116524,0.098197,0.226495,0.076364,0.394947,0.124802,-1.923679
1515649116534,0.120692,0.245382,0.082382,0.371744,0.080619,-1.886169
1515649116545,0.144337,0.263055,0.092259,0.332633,0.042736,-1.832585
1515649116555,0.165755,0.28094,0.103558,0.282926,0.004816,-1.777889
1515649116565,0.181196,0.295169,0.110862,0.219442,-0.032096,-1.718865
1515649116575,0.199893,0.303154,0.113981,0.150663,-0.071168,-1.659815
1515649116585,0.218469,0.309102,0.115538,0.076578,-0.105974,-1.599681
1515649116595,0.23196,0.31573,0.113811,-0.004968,-0.122595,-1.538468
1515649116605,0.251143,0.319833,0.112013,-0.095058,-0.108182,-1.475125
1515649116615,0.272868,0.322403,0.113186,-0.200081,-0.047779,-1.40431
1515649116625,0.288943,0.325109,0.112484,-0.306215,0.035054,-1.320705
1515649116635,0.308656,0.324564,0.104718,-0.408137,0.128645,-1.24353
1515649116645,0.332745,0.318716,0.096962,-0.498399,0.220183,-1.177081
1515649116655,0.351049,0.31971,0.091069,-0.576988,0.30535,-1.114949
1515649116665,0.368211,0.327328,0.081679,-0.632204,0.362698,-1.046472
1515649116676,0.38995,0.334049,0.069472,-0.655553,0.385829,-0.972747
1515649116686,0.413026,0.342016,0.059066,-0.653396,0.376881,-0.895893
1515649116696,0.434735,0.347677,0.054411,-0.635286,0.344374,-0.81161
1515649116706,0.454424,0.356409,0.054732,-0.598075,0.300074,-0.714581
1515649116716,0.473837,0.366013,0.053949,-0.553376,0.224661,-0.604731
1515649116726,0.49077,0.370769,0.052436,-0.506524,0.136335,-0.482071
1515649116736,0.506346,0.376518,0.053527,-0.455431,0.04799,-0.353023
1515649116746,0.514657,0.382083,0.061787,-0.426625,-0.023371,-0.205757
1515649116756,0.519424,0.386332,0.074031,-0.423283,-0.0788,-0.045595
1515649116766,0.514662,0.394786,0.081909,-0.448588,-0.117233,0.126411
1515649116776,0.497055,0.40058,0.085376,-0.491956,-0.133242,0.302734
1515649116786,0.470173,0.399375,0.085174,-0.555545,-0.113828,0.453483
1515649116796,0.428517,0.389709,0.080014,-0.613836,-0.096381,0.572186
1515649116807,0.378498,0.378361,0.053899,-0.638202,-0.088384,0.672615
1515649116817,0.336821,0.364088,0.027378,-0.634996,-0.092015,0.757999
1515649116827,0.299937,0.35349,0.006164,-0.611642,-0.101971,0.834764
1515649116837,0.247864,0.359852,-0.016078,-0.564919,-0.140646,0.883715
1515649116847,0.159001,0.416272,-0.033316,-0.48532,-0.192014,0.91973
1515649116857,0.059567,0.522343,-0.025693,-0.414219,-0.227618,1.012333
1515649116867,-0.013132,0.604681,0.002588,-0.372807,-0.249662,1.16055
1515649116877,-0.091125,0.622326,0.018583,-0.361044,-0.279374,1.324916
1515649116887,-0.16462,0.603133,0.027125,-0.401186,-0.320906,1.464967
1515649116897,-0.217585,0.570286,0.047215,-0.54309,-0.353859,1.542464
1515649116907,-0.255389,0.540796,0.078022,-0.829216,-0.344189,1.579964
1515649116917,-0.269667,0.491711,0.099042,-1.193954,-0.245938,1.639042
1515649116927,-0.264398,0.412837,0.073058,-1.546178,-0.05554,1.70435
1515649116937,-0.263701,0.329828,0.011092,-1.822277,0.209137,1.744689
1515649116948,-0.258473,0.242111,-0.057134,-1.976596,0.506541,1.740706
1515649116958,-0.2559,0.165369,-0.133208,-1.999418,0.754247,1.683923
1515649116968,-0.24512,0.107013,-0.199189,-1.895936,0.906185,1.571216
1515649116978,-0.226685,0.069136,-0.242068,-1.675729,0.985713,1.439949
1515649116988,-0.208025,0.055743,-0.257666,-1.393897,0.993508,1.335199
1515649116998,-0.17538,0.05293,-0.248887,-1.094909,0.914383,1.26785
1515649117008,-0.130395,0.041549,-0.218409,-0.804202,0.751528,1.228387
1515649117018,-0.085165,0.028105,-0.170366,-0.553614,0.525223,1.212655
1515649117028,-0.053619,0.0158,-0.126725,-0.37076,0.2622,1.214339
1515649117038,-0.031366,0.003118,-0.081486,-0.26956,0.026723,1.229145
1515649117048,-0.013018,-0.011451,-0.037031,-0.256448,-0.146963,1.261328
1515649117058,-0.007858,-0.029707,-0.006982,-0.316608,-0.250222,1.306544
1515649117068,-0.016681,-0.048669,-0.003659,-0.404534,-0.25715,1.353893
1515649117079,-0.040106,-0.072158,-0.020119,-0.487358,-0.179316,1.379768
1515649117089,-0.065575,-0.098202,-0.040595,-0.575623,-0.042342,1.359693
1515649117099,-0.072582,-0.11525,-0.051765,-0.692538,0.108654,1.303431
1515649117109,-0.06445,-0.125616,-0.067364,-0.814743,0.253303,1.227987
1515649117119,-0.050949,-0.133376,-0.097038,-0.886061,0.38948,1.163009
1515649117129,-0.042238,-0.137956,-0.139882,-0.869361,0.500039,1.131845
1515649117139,-0.025379,-0.14467,-0.176751,-0.7816,0.585993,1.135634
1515649117149,-0.004891,-0.16315,-0.200422,-0.641745,0.598099,1.155302
1515649117159,0.012815,-0.190442,-0.213563,-0.479504,0.550317,1.166411
1515649117169,0.016576,-0.209466,-0.211744,-0.319302,0.46407,1.155161
1515649117179,0.006819,-0.223077,-0.195564,-0.169682,0.369328,1.122618
1515649117189,0.003863,-0.24432,-0.172889,-0.055074,0.293737,1.095539
1515649117199,-0.003238,-0.259835,-0.141004,0.006525,0.231814,1.088947
1515649117210,-0.023733,-0.26797,-0.1127,0.037287,0.214893,1.06322
1515649117220,-0.050367,-0.27707,-0.079918,0.040431,0.222742,0.994886
1515649117230,-0.070397,-0.28081,-0.052172,0.025559,0.232654,0.931961
1515649117240,-0.079029,-0.287527,-0.031964,-0.011548,0.234951,0.878747
1515649117250,-0.082801,-0.295358,-0.012613,-0.058175,0.230749,0.834121
1515649117260,-0.086872,-0.304145,0.001122,-0.103751,0.231815,0.807632
1515649117270,-0.098872,-0.314983,0.003092,-0.133406,0.22219,0.786423
1515649117280,-0.11694,-0.323563,0.001871,-0.152468,0.213733,0.752355
1515649117290,-0.130693,-0.338819,0.00575,-0.188538,0.226736,0.701258
1515649117300,-0.150355,-0.347009,0.018384,-0.25325,0.251502,0.637462
1515649117310,-0.165409,-0.34429,0.02273,-0.31585,0.279511,0.569382
1515649117320,-0.180367,-0.342368,0.018637,-0.357236,0.299008,0.502285
1515649117330,-0.197407,-0.341186,0.008054,-0.380593,0.312114,0.438325
1515649117341,-0.205785,-0.337218,0.005468,-0.400766,0.323043,0.382895
1515649117351,-0.218402,-0.323743,0.005015,-0.409285,0.337159,0.340218
1515649117361,-0.235732,-0.310058,-0.005756,-0.392315,0.327711,0.311337
1515649117371,-0.24504,-0.303165,-0.016336,-0.363655,0.302255,0.27709
1515649117381,-0.260774,-0.291917,-0.021382,-0.325466,0.280041,0.242799
1515649117391,-0.284855,-0.272112,-0.016998,-0.302136,0.268518,0.204288
1515649117401,-0.307324,-0.255414,-0.01273,-0.275584,0.23669,0.157249
1515649117411,-0.330876,-0.247296,-0.01638,-0.244786,0.200638,0.100591
1515649117421,-0.354679,-0.236553,-0.015082,-0.218266,0.18067,0.038597
1515649117431,-0.386692,-0.220641,-0.008212,-0.198167,0.188587,-0.033014
1515649117441,-0.416346,-0.218404,0.001558,-0.187642,0.211599,-0.129157
1515649117451,-0.441867,-0.216641,0.015632,-0.193038,0.242199,-0.252989
1515649117461,-0.465023,-0.188345,0.03094,-0.228107,0.272743,-0.3831
1515649117471,-0.479089,-0.136365,0.050217,-0.287571,0.315958,-0.490706
1515649117482,-0.47281,-0.077567,0.065501,-0.345892,0.325716,-0.549171
1515649117492,-0.462517,-0.024361,0.057268,-0.355304,0.268935,-0.555464
1515649117502,-0.459869,0.014601,0.032768,-0.311579,0.149962,-0.519216
1515649117512,-0.47409,0.037114,0.013398,-0.226479,0.010639,-0.459631
1515649117522,-0.507954,0.044757,0.008369,-0.130794,-0.126415,-0.419302
1515649117532,-0.563123,0.038233,0.012449,-0.067988,-0.257815,-0.457832
1515649117542,-0.613198,0.008469,0.022639,-0.04555,-0.350458,-0.558149
1515649117552,-0.647781,-0.039507,0.03871,-0.089013,-0.360504,-0.718059
1515649117562,-0.664697,-0.083227,0.060061,-0.216477,-0.24836,-0.938606
1515649117572,-0.639808,-0.130484,0.088017,-0.41415,-0.020504,-1.201692
1515649117582,-0.58805,-0.16955,0.095551,-0.621518,0.276995,-1.471229
1515649117592,-0.508995,-0.196927,0.075847,-0.784382,0.578792,-1.716411
1515649117602,-0.425725,-0.196613,0.035955,-0.866583,0.826046,-1.933048
1515649117613,-0.354124,-0.155035,-0.00747,-0.86809,1.005897,-2.12006
1515649117623,-0.292815,-0.088013,-0.043226,-0.771906,1.101217,-2.270029
1515649117633,-0.240249,-0.008708,-0.079225,-0.585417,1.095916,-2.383962
1515649117643,-0.192106,0.071973,-0.101682,-0.344695,1.011201,-2.439318
1515649117653,-0.148119,0.150303,-0.10015,-0.083699,0.86953,-2.447726
1515649117663,-0.116815,0.217629,-0.086142,0.178502,0.665598,-2.43151
1515649117673,-0.097706,0.270162,-0.065014,0.419571,0.435799,-2.397028
1515649117683,-0.083951,0.304373,-0.032124,0.591735,0.219629,-2.344122
1515649117693,-0.079312,0.336029,0.020884,0.658878,0.054565,-2.289765
1515649117703,-0.072291,0.36415,0.076527,0.624169,-0.056187,-2.230771
1515649117713,-0.060818,0.377304,0.117127,0.517296,-0.118948,-2.170462
1515649117723,-0.050314,0.379636,0.139441,0.366872,-0.135734,-2.117497
1515649117733,-0.036409,0.376183,0.144414,0.20262,-0.131064,-2.078376
1515649117744,-0.026631,0.378844,0.126222,0.065873,-0.105901,-2.050072
1515649117754,-0.019222,0.390108,0.095513,-0.02858,-0.03888,-2.011327
1515649117764,0.000332,0.390186,0.077579,-0.108256,0.054993,-1.97695
1515649117774,0.028802,0.384297,0.064443,-0.175215,0.146803,-1.951162
1515649117784,0.060003,0.381294,0.048786,-0.226241,0.220457,-1.92755
1515649117794,0.098321,0.375998,0.036236,-0.254988,0.28346,-1.902956
1515649117804,0.137985,0.374727,0.030466,-0.276259,0.320773,-1.878363
1515649117814,0.179616,0.375399,0.027788,-0.283706,0.337722,-1.844196
1515649117824,0.22034,0.376962,0.020788,-0.268833,0.325797,-1.80689
1515649117834,0.260392,0.382321,0.015223,-0.236948,0.288181,-1.764283
1515649117844,0.30158,0.386635,0.014551,-0.201855,0.237642,-1.706725
1515649117854,0.338895,0.391427,0.013099,-0.180558,0.199807,-1.626714
1515649117864,0.373046,0.390077,0.020669,-0.156111,0.177931,-1.522188
1515649117875,0.400633,0.395762,0.022099,-0.138053,0.172005,-1.397373
1515649117885,0.425165,0.398384,0.031164,-0.132722,0.172406,-1.259704
1515649117895,0.443366,0.393327,0.036824,-0.139076,0.184578,-1.126269
1515649117905,0.454222,0.387463,0.044147,-0.149701,0.210702,-1.000303
1515649117915,0.464121,0.379707,0.053888,-0.161357,0.221914,-0.892461
1515649117925,0.472569,0.368347,0.056231,-0.172946,0.2042,-0.784587
1515649117935,0.484309,0.354124,0.059221,-0.185563,0.170437,-0.682021
1515649117945,0.495451,0.340024,0.062687,-0.201355,0.134537,-0.582639
1515649117955,0.499051,0.324938,0.065174,-0.239459,0.124311,-0.488533
1515649117965,0.499284,0.312438,0.071008,-0.28607,0.128025,-0.401884
1515649117975,0.501809,0.303597,0.069866,-0.329517,0.139163,-0.298176
1515649117985,0.501058,0.296447,0.061387,-0.367661,0.148174,-0.194487
1515649117995,0.497845,0.289125,0.056678,-0.389939,0.1701,-0.093018
1515649118005,0.498375,0.281134,0.05611,-0.422834,0.200515,0.018099
1515649118016,0.500605,0.275402,0.059791,-0.472683,0.232982,0.137819
1515649118026,0.495477,0.269509,0.057409,-0.506572,0.236596,0.252166
1515649118036,0.479329,0.261129,0.046782,-0.512868,0.219989,0.355751
1515649118046,0.468906,0.251962,0.039394,-0.495746,0.156295,0.462498
1515649118056,0.445559,0.240218,0.019036,-0.434055,0.065903,0.578694
1515649118066,0.406398,0.227689,-0.004621,-0.323602,-0.032875,0.68722
1515649118076,0.374318,0.208593,-0.010098,-0.213198,-0.10916,0.796785
1515649118086,0.341226,0.194221,0.001236,-0.14202,-0.175963,0.915042
1515649118096,0.297443,0.190682,0.014281,-0.092081,-0.224568,1.023764
1515649118106,0.249153,0.180822,0.025826,-0.058035,-0.276303,1.105872
1515649118116,0.192103,0.169874,0.03151,-0.019745,-0.335327,1.148478
1515649118126,0.144533,0.166116,0.02967,0.022806,-0.406039,1.174003
1515649118136,0.099463,0.187019,0.029478,0.064275,-0.46709,1.19525
1515649118147,0.058361,0.235414,0.032501,0.096173,-0.512159,1.228262
1515649118157,0.024239,0.302549,0.051114,0.101529,-0.528645,1.314718
1515649118167,-0.009339,0.375673,0.073702,0.104776,-0.541213,1.473757
1515649118177,-0.03941,0.430346,0.088538,0.100661,-0.575424,1.671285
1515649118187,-0.069226,0.455964,0.105989,0.090242,-0.631232,1.898755
1515649118197,-0.112678,0.459443,0.119983,0.076738,-0.728807,2.120951
1515649118207,-0.164014,0.440802,0.133698,0.031452,-0.833795,2.307
1515649118217,-0.228243,0.400633,0.154346,-0.058417,-0.909773,2.449442
1515649118227,-0.290806,0.349424,0.16525,-0.207741,-0.940691,2.544049
1515649118237,-0.344288,0.265621,0.152854,-0.375237,-0.907082,2.578878
1515649118247,-0.385728,0.132113,0.114904,-0.49733,-0.808701,2.542987
1515649118257,-0.430867,0.01177,0.050729,-0.551656,-0.693703,2.438471
1515649118267,-0.472914,-0.059315,-0.017315,-0.528718,-0.543824,2.260994
1515649118278,-0.493095,-0.116249,-0.069106,-0.436935,-0.384939,2.037319
1515649118288,-0.503657,-0.161598,-0.114143,-0.274093,-0.254704,1.80057
1515649118298,-0.494025,-0.183141,-0.146075,-0.043341,-0.162908,1.578521
1515649118308,-0.452796,-0.194738,-0.155094,0.238454,-0.146174,1.40011
1515649118318,-0.392245,-0.19891,-0.150836,0.548097,-0.255045,1.288984
