time,accel x,accel y,accel z,gyro x,gyro y,gyro z
1515651251087,0.078268,-0.078074,-0.068838,0.501975,-1.186305,-0.654325
1515651251097,0.120204,-0.034772,0.054718,-0.197731,-0.53546,-0.318057
1515651251107,0.165802,-0.026507,0.159842,-0.815211,0.325831,0.191577
1515651251117,0.127913,-0.101017,0.036703,-1.087137,0.624603,0.272416
1515651251127,0.050517,-0.052081,-0.125202,-1.053232,0.60228,0.042811
1515651251137,0.026686,-0.10545,-0.159208,-0.741715,0.596571,-0.129293
1515651251147,0.033344,-0.145726,-0.178892,-0.318674,0.479609,-0.268645
1515651251157,0.041775,-0.12729,-0.167465,0.048664,0.165013,-0.341338
1515651251167,0.057466,-0.122034,-0.103603,0.24535,-0.125723,-0.359959
1515651251178,0.092945,-0.084409,-0.014336,0.234798,-0.146101,-0.362022
1515651251188,0.106578,-0.044623,0.065848,0.060834,-0.055061,-0.246116
1515651251198,0.074564,-0.086103,0.051601,-0.153582,0.115295,-0.161089
1515651251208,0.091202,-0.185101,0.038954,-0.311034,0.39333,-0.150091
1515651251218,0.135874,-0.202956,0.009034,-0.39416,0.606203,-0.132927
1515651251228,0.156535,-0.218398,-0.031587,-0.429023,0.565091,-0.07402
1515651251238,0.145438,-0.255733,-0.059865,-0.403036,0.320694,-0.03433
1515651251248,0.128503,-0.290163,-0.088429,-0.254081,0.051204,-0.045302
1515651251258,0.116388,-0.307625,-0.117004,-0.027774,-0.219987,-0.098231
1515651251268,0.106798,-0.317635,-0.135064,0.261847,-0.371055,-0.138772
1515651251278,0.11267,-0.321385,-0.167847,0.548918,-0.324178,-0.128315
1515651251288,0.095777,-0.257191,-0.184894,0.68464,-0.363325,-0.145924
1515651251298,0.078622,-0.161345,-0.137029,0.720832,-0.438139,-0.160927
1515651251309,0.090852,-0.111314,-0.067828,0.702008,-0.549626,-0.159639
1515651251319,0.106903,-0.110267,-0.021185,0.639779,-0.67948,-0.153875
1515651251329,0.109708,-0.09948,0.001197,0.575314,-0.759928,-0.173779
1515651251339,0.100792,-0.08399,-0.008052,0.538209,-0.758723,-0.22272
1515651251349,0.086207,-0.089601,-0.011826,0.480691,-0.636305,-0.313356
1515651251359,0.075943,-0.106582,0.04026,0.319559,-0.147713,-0.417881
1515651251369,0.084946,-0.111306,0.064085,0.256213,0.221712,-0.414871
1515651251379,0.105158,-0.153827,0.046099,0.094034,0.730575,-0.287798
1515651251389,0.134993,-0.183231,0.038352,0.083693,1.100741,-0.186816
1515651251399,0.173818,-0.136912,0.007048,0.066579,1.192947,0.004203
1515651251409,0.152388,-0.099528,-0.042607,0.066979,1.02733,0.129293
1515651251419,0.09311,-0.066976,-0.044591,0.159206,1.01255,0.14066
1515651251429,0.072227,-0.030911,-0.022533,0.291459,1.106107,0.150652
1515651251439,0.085295,-0.001757,-0.004672,0.309333,1.181633,0.270029
1515651251450,0.087878,0.003889,0.044885,0.209732,1.195512,0.434815
1515651251460,0.104816,0.015543,0.10874,0.087071,1.088578,0.534741
1515651251470,0.123295,0.007394,0.14802,-0.017213,0.813794,0.573956
1515651251480,0.130916,-0.034352,0.152434,-0.054528,0.443966,0.591653
1515651251490,0.135353,-0.067699,0.131075,-0.018689,0.057198,0.612265
1515651251500,0.122258,-0.046917,0.086086,0.003573,-0.421569,0.596758
1515651251510,0.083754,0.0087,0.023519,0.055064,-0.704135,0.571275
1515651251520,0.056809,0.006012,-0.017746,0.167566,-0.785131,0.552751
1515651251530,0.033381,0.004476,-0.073295,0.266946,-0.683033,0.548997
1515651251540,-0.006483,0.003848,-0.12799,0.316,-0.348594,0.54517
1515651251550,-0.058403,-0.008625,-0.126854,0.314289,-0.061284,0.508526
1515651251560,-0.043078,-0.017919,-0.056524,0.235085,0.288016,0.456116
1515651251570,-0.004662,-0.02112,-0.036157,0.09684,0.499997,0.404138
1515651251581,-0.022979,-0.027621,-0.03243,-0.002166,0.692969,0.320001
1515651251591,-0.055874,-0.02918,-0.025877,-0.03853,0.834678,0.240992
1515651251601,-0.078662,-0.015449,-0.040386,-0.052544,0.927334,0.128866
1515651251611,-0.0877,0.024781,-0.008241,-0.054806,0.989537,0.114922
1515651251621,-0.061086,0.013317,0.001678,-0.089592,0.912149,0.143981
1515651251631,-0.045254,-0.020588,-0.00616,-0.05335,0.816899,0.145013
1515651251641,-0.022832,-0.047166,-0.037962,0.058323,0.636138,0.151166
1515651251651,0.009782,-0.06783,-0.09364,0.2137,0.342895,0.180756
1515651251661,0.037916,-0.088162,-0.122002,0.376399,0.090477,0.192119
1515651251671,0.038393,-0.072479,-0.079443,0.498433,0.004499,0.104179
1515651251681,0.015259,0.002265,0.000652,0.488752,0.055449,-0.020728
1515651251691,0.01792,0.016401,0.05491,0.401767,0.094898,-0.034282
1515651251701,0.029674,-0.006828,0.080618,0.285278,0.063342,-0.007058
1515651251712,0.010643,-0.022576,0.099624,0.1507,0.05985,-0.032096
1515651251722,-0.036957,-0.03982,0.113449,0.052044,0.10163,-0.090436
1515651251732,-0.055448,-0.0403,0.110032,-0.007463,0.172312,-0.120157
1515651251742,-0.045345,-0.022684,0.097125,-0.044658,0.222438,-0.096579
1515651251752,-0.010862,-0.015705,0.089929,-0.054312,0.282051,-0.025098
1515651251762,-0.001556,-0.01945,0.077835,-0.003569,0.346018,0.068538
1515651251772,-0.002051,-0.01933,0.051682,0.096143,0.306395,0.124734
1515651251782,0.030201,-0.022874,0.066076,0.267064,0.160417,0.066548
1515651251792,0.070224,-0.079868,-0.002433,0.367399,-0.182325,-0.108503
1515651251802,0.024915,-0.070683,-0.004046,0.395842,-0.125697,-0.275206
1515651251812,-0.01604,-0.021864,0.024949,0.345761,-0.003634,-0.290088
1515651251822,0.001976,-0.01553,-0.020815,0.257307,0.22724,-0.233433
1515651251832,0.016643,-0.013431,0.005451,0.164669,0.432408,-0.180992
1515651251843,0.026004,-0.012702,0.002198,0.108289,0.532713,-0.133907
1515651251853,0.034181,-0.015553,0.017999,0.108403,0.487465,-0.083684
1515651251863,0.058518,-0.01693,0.035934,0.186171,0.312663,-0.003745
1515651251873,0.080654,-0.014346,0.065176,0.284325,0.026406,0.094394
1515651251883,0.09733,-0.014552,0.066296,0.359266,-0.302798,0.196953
1515651251893,0.092466,-0.022804,0.065515,0.387316,-0.517376,0.273954
1515651251903,0.056461,-0.045276,0.051933,0.389501,-0.543259,0.309202
1515651251913,-0.00923,-0.073951,0.00163,0.410286,-0.362072,0.297145
1515651251923,-0.051974,-0.049354,-0.018862,0.464881,-0.135865,0.300903
1515651251933,-0.008006,-0.006679,-0.006127,0.52087,-0.051381,0.365669
1515651251943,0.033402,-0.003246,0.038924,0.488114,-0.086051,0.423488
1515651251953,0.016722,-0.018394,0.113136,0.372693,-0.121835,0.440036
1515651251963,-0.010635,-0.025356,0.169421,0.219078,-0.139414,0.435376
1515651251973,-0.019194,-0.027735,0.175323,0.069812,-0.206275,0.432895
1515651251984,-0.032509,-0.034074,0.116599,-0.027434,-0.319977,0.401434
1515651251994,-0.060824,-0.040078,0.057842,-0.064401,-0.382907,0.322684
1515651252004,-0.077873,-0.048121,0.014442,-0.086657,-0.390063,0.240598
1515651252014,-0.079473,-0.047849,-0.016767,-0.104827,-0.325584,0.190427
1515651252024,-0.069194,-0.039424,-0.055864,-0.110379,-0.215162,0.173238
1515651252034,-0.07307,-0.022143,-0.072623,-0.142521,-0.058798,0.165707
1515651252044,-0.079416,-0.012107,-0.043793,-0.226581,0.095305,0.150925
1515651252054,-0.060647,-0.004446,-0.013577,-0.337983,0.155005,0.143855
1515651252064,-0.040565,0.008227,0.006144,-0.431146,0.116122,0.150705
1515651252074,-0.016537,0.012841,0.006163,-0.489222,0.023812,0.150001
1515651252084,0.011815,0.012291,0.018945,-0.522754,-0.146573,0.136483
1515651252094,0.021006,-0.001496,-0.05889,-0.524444,-0.340421,0.120722
1515651252104,-0.021378,0.015986,-0.080682,-0.502214,-0.330679,0.11421
1515651252115,-0.042106,0.026527,-0.086256,-0.462051,-0.281369,0.133189
1515651252125,-0.047029,0.028893,-0.098569,-0.384815,-0.227594,0.138132
1515651252135,-0.056483,0.034191,-0.104837,-0.258844,-0.173447,0.098033
1515651252145,-0.052978,0.041238,-0.103194,-0.140274,-0.127845,0.048369
1515651252155,-0.029003,0.043623,-0.095787,-0.03753,-0.108224,0.042569
1515651252165,-0.010728,0.035602,-0.068642,0.007971,-0.076089,0.071155
1515651252175,-0.001493,0.025847,-0.038839,0.028074,-0.058022,0.112675
1515651252185,-0.000016,0.024191,-0.036931,0.079962,-0.037652,0.141243
1515651252195,-0.021507,0.036163,-0.022462,0.149829,-0.006328,0.132367
1515651252205,-0.045124,0.048465,0.018443,0.20805,0.018612,0.107537
1515651252215,-0.059075,0.069309,0.069508,0.24407,0.020938,0.092437
1515651252225,-0.06454,0.096288,0.117081,0.243059,-0.00359,0.068991
1515651252235,-0.057917,0.111864,0.162466,0.21239,-0.034609,0.040341
1515651252246,-0.050637,0.117425,0.18505,0.158428,-0.07322,0.016069
1515651252256,-0.0572,0.1258,0.19196,0.085335,-0.086201,-0.002816
1515651252266,-0.072534,0.12592,0.178026,0.047201,-0.094845,-0.011178
1515651252276,-0.094671,0.142003,0.151913,0.077039,-0.169732,-0.015481
1515651252286,-0.103085,0.145892,0.145398,0.126031,-0.278925,-0.003812
1515651252296,-0.100693,0.140115,0.14717,0.153824,-0.380906,0.052768
1515651252306,-0.111746,0.129593,0.143058,0.133793,-0.421876,0.092396
1515651252316,-0.087637,0.147598,0.181194,0.067174,-0.476057,0.174938
1515651252326,-0.093333,0.115981,0.172965,-0.019376,-0.623398,0.235266
1515651252336,-0.114626,0.11636,0.17386,-0.117964,-0.610647,0.197245
1515651252346,-0.112261,0.156468,0.198766,-0.278225,-0.505797,0.13055
1515651252356,-0.085541,0.125698,0.211431,-0.442939,-0.301508,0.10111
1515651252366,-0.090275,0.100767,0.229972,-0.591754,-0.102389,0.043857
1515651252376,-0.093511,0.120056,0.280028,-0.706399,-0.021965,-0.03901
1515651252387,-0.067639,0.106233,0.31706,-0.783534,-0.125867,-0.089787
1515651252397,-0.045037,0.088238,0.335211,-0.826499,-0.345452,-0.125619
1515651252407,-0.056224,0.1036,0.351108,-0.88194,-0.6794,-0.224229
1515651252417,-0.104343,0.129284,0.314443,-0.831543,-0.952076,-0.299888
1515651252427,-0.045044,0.078376,0.240512,-0.721921,-1.162869,-0.288352
1515651252437,-0.031849,0.076233,0.186403,-0.634459,-1.415519,-0.2756
1515651252447,-0.032242,0.099415,0.156574,-0.610608,-1.655499,-0.263657
1515651252457,-0.019154,0.052943,0.141663,-0.691693,-1.883935,-0.266227
1515651252467,-0.004882,-0.002729,0.104798,-0.878855,-2.060288,-0.2492
1515651252477,-0.00805,-0.039417,0.067197,-1.192082,-1.779588,-0.22153
1515651252487,-0.007878,-0.024293,0.057197,-1.388829,-1.458001,-0.159182
1515651252497,-0.023579,-0.025243,0.00994,-1.481892,-1.062179,-0.096304
1515651252507,-0.04502,-0.01869,-0.054425,-1.484511,-0.836228,-0.075229
1515651252518,-0.058772,-0.033308,-0.094397,-1.497384,-0.768647,-0.099808
1515651252528,-0.044434,-0.046988,-0.053992,-1.563385,-0.641079,-0.15412
1515651252538,-0.046205,-0.068687,-0.008245,-1.748193,-0.456071,-0.196259
1515651252548,-0.054595,-0.080523,0.017929,-2.018732,-0.30301,-0.114177
1515651252558,-0.039634,-0.105493,-0.015116,-2.253955,-0.297045,0.052265
1515651252568,-0.024031,-0.107923,-0.136608,-2.208194,-0.379618,0.094869
1515651252578,-0.03395,-0.082902,-0.302313,-1.843384,-0.512096,0.024097
1515651252588,-0.034522,-0.060651,-0.408272,-1.2859,-0.562503,-0.060409
1515651252598,-0.015114,-0.056676,-0.391812,-0.753151,-0.449135,-0.130071
1515651252608,0.022601,-0.04483,-0.300877,-0.467357,-0.313006,-0.185895
1515651252618,0.070649,-0.083933,-0.192094,-0.473857,-0.243662,-0.13045
1515651252628,0.107597,-0.120516,-0.088419,-0.606333,-0.229328,-0.076537
1515651252638,0.111537,-0.138429,-0.054214,-0.697125,-0.380711,-0.067421
1515651252649,0.101832,-0.132029,-0.021662,-0.658717,-0.500443,-0.09732
1515651252659,0.097627,-0.12402,-0.012289,-0.579862,-0.702433,-0.150773
1515651252669,0.088099,-0.101401,-0.031363,-0.464857,-0.95582,-0.188307
1515651252679,0.087811,-0.131914,-0.032759,-0.395502,-1.166772,-0.169126
1515651252689,0.100952,-0.149402,-0.04222,-0.376859,-1.441286,-0.110156
1515651252699,0.108055,-0.129419,-0.094328,-0.287583,-1.551701,-0.04422
1515651252709,0.110055,-0.112462,-0.164122,-0.174384,-1.468885,-0.040533
1515651252719,0.088077,-0.133074,-0.207809,-0.114159,-1.389441,-0.03662
1515651252729,0.065151,-0.178169,-0.230215,-0.062208,-1.398004,-0.006946
1515651252739,0.051339,-0.210748,-0.238742,0.020513,-1.42978,-0.030742
1515651252749,0.062662,-0.215744,-0.239268,0.116207,-1.58236,-0.09927
1515651252759,0.107077,-0.216541,-0.245782,0.231068,-1.770463,-0.123007
1515651252769,0.152358,-0.227205,-0.257349,0.326587,-1.82942,-0.0593
1515651252780,0.168822,-0.202133,-0.251754,0.340276,-1.780553,0.032376
1515651252790,0.158914,-0.160129,-0.220471,0.245557,-1.590514,0.109395
1515651252800,0.128874,-0.133801,-0.189512,0.065846,-1.304225,0.170645
1515651252810,0.104282,-0.112897,-0.198002,-0.136064,-1.042672,0.237359
1515651252820,0.086089,-0.100017,-0.230313,-0.299504,-0.922497,0.31796
1515651252830,0.054294,-0.105496,-0.266434,-0.401051,-0.993973,0.410277
1515651252840,0.043963,-0.132076,-0.317143,-0.428109,-1.201452,0.53447
1515651252850,0.03718,-0.151103,-0.371329,-0.355467,-1.446236,0.67963
1515651252860,0.01422,-0.150034,-0.441896,-0.137634,-1.702191,0.788961
1515651252870,-0.014779,-0.14967,-0.521115,0.176468,-1.890162,0.858304
1515651252880,-0.014669,-0.138893,-0.546641,0.475323,-1.896989,0.902935
1515651252890,0.018007,-0.173459,-0.50185,0.62964,-1.712563,0.966087
1515651252900,0.070429,-0.233895,-0.406274,0.648008,-1.391339,1.015774
1515651252910,0.100449,-0.279922,-0.33125,0.579323,-1.006786,0.989966
1515651252921,0.091676,-0.290573,-0.28166,0.473563,-0.640037,0.859737
1515651252931,0.084313,-0.297841,-0.253458,0.39882,-0.404801,0.694316
1515651252941,0.087545,-0.280747,-0.242328,0.408143,-0.326801,0.527666
1515651252951,0.121626,-0.245132,-0.23304,0.51742,-0.396652,0.420549
1515651252961,0.152585,-0.206621,-0.241248,0.688291,-0.518084,0.381546
1515651252971,0.19298,-0.165636,-0.249106,0.882448,-0.620464,0.403258
1515651252981,0.236578,-0.138362,-0.245868,1.077525,-0.656633,0.468649
1515651252991,0.229251,-0.111072,-0.242201,1.282136,-0.685519,0.583088
1515651253001,0.217652,-0.090949,-0.239965,1.44962,-0.699427,0.679523
1515651253011,0.20765,-0.078774,-0.218956,1.627343,-0.559828,0.722355
1515651253021,0.156702,-0.03875,-0.212153,1.749027,-0.470967,0.808183
1515651253031,0.119214,-0.017198,-0.180438,1.777394,-0.363635,0.786579
1515651253041,0.06366,-0.059044,-0.081735,1.748493,-0.244323,0.691555
1515651253052,0.049834,-0.024305,-0.059139,1.706126,-0.263326,0.609575
1515651253062,0.049519,-0.003612,-0.017464,1.655362,-0.309491,0.598109
1515651253072,0.024456,-0.01928,0.006572,1.593053,-0.407016,0.566472
1515651253082,-0.00719,-0.025034,0.007436,1.522348,-0.546127,0.490096
1515651253092,-0.006455,-0.021455,0.005489,1.438993,-0.715237,0.406337
1515651253102,-0.002041,-0.021044,0.014926,1.342916,-0.881237,0.33544
1515651253112,-0.006282,-0.027495,0.028839,1.231696,-0.910128,0.261236
1515651253122,-0.00636,-0.031021,0.053468,1.114554,-0.66455,0.145083
1515651253132,-0.016932,-0.029924,0.06532,1.00349,-0.29567,0.013807
1515651253142,-0.022172,-0.026524,0.059447,0.904356,-0.044788,-0.081082
1515651253152,-0.018951,-0.022602,0.035851,0.842818,-0.018893,-0.154499
1515651253162,-0.016476,-0.004439,0.036274,0.708315,-0.061749,-0.234993
1515651253172,-0.013409,0.00533,0.066848,0.570512,-0.049969,-0.316611
1515651253183,0.004483,-0.01415,0.084392,0.445448,-0.051924,-0.429218
1515651253193,-0.002856,-0.009548,0.06348,0.309914,-0.11174,-0.547043
1515651253203,-0.010076,0.01206,0.047199,0.172252,-0.164211,-0.634983
1515651253213,0.014475,0.023282,0.040762,0.062098,-0.193254,-0.678237
1515651253223,0.050694,0.031189,0.027158,0.011297,-0.225389,-0.710001
1515651253233,0.067662,0.040687,0.014013,-0.006654,-0.255357,-0.726966
1515651253243,0.067595,0.05181,0.003609,0.006149,-0.294928,-0.733375
1515651253253,0.052706,0.056347,-0.015289,0.048604,-0.323727,-0.733525
1515651253263,0.02422,0.057266,-0.018749,0.098398,-0.320304,-0.745483
1515651253273,0.010528,0.061893,-0.004041,0.131206,-0.305073,-0.772325
1515651253283,0.006007,0.069074,0.008573,0.133303,-0.297449,-0.795826
1515651253293,0.004749,0.080389,0.020996,0.110011,-0.307124,-0.803188
1515651253303,0.010269,0.09338,0.027475,0.068711,-0.318027,-0.790189
1515651253314,0.007637,0.11124,0.023624,0.032732,-0.335474,-0.750522
1515651253324,0.000317,0.123152,0.023198,-0.011634,-0.390606,-0.678749
1515651253334,-0.010636,0.130985,0.029492,-0.054821,-0.496272,-0.570623
1515651253344,-0.024906,0.135026,0.03781,-0.072546,-0.612644,-0.448719
1515651253354,-0.040398,0.131556,0.047761,-0.038491,-0.666584,-0.353802
1515651253364,-0.056704,0.12869,0.059327,0.029332,-0.665442,-0.327408
1515651253374,-0.058824,0.134292,0.064945,0.111936,-0.648872,-0.377946
1515651253384,-0.050719,0.141851,0.069925,0.163825,-0.638801,-0.432617
1515651253394,-0.037589,0.143079,0.085984,0.185931,-0.574365,-0.449872
1515651253404,-0.027688,0.157555,0.103113,0.152815,-0.456552,-0.46162
1515651253414,-0.016961,0.174901,0.110801,0.096329,-0.312073,-0.463696
1515651253424,-0.004917,0.180945,0.099642,0.03988,-0.180632,-0.429463
1515651253434,0.005209,0.183639,0.071892,-0.001625,-0.09333,-0.344
1515651253444,0.01464,0.184384,0.045856,-0.011196,-0.067091,-0.240455
1515651253455,0.02492,0.182585,0.0281,0.012173,-0.081405,-0.148745
1515651253465,0.034978,0.179836,0.01177,0.103409,-0.123133,-0.105319
1515651253475,0.03305,0.176831,-0.013816,0.262564,-0.214761,-0.112288
1515651253485,0.017397,0.175926,-0.022207,0.432357,-0.324577,-0.118212
1515651253495,-0.001501,0.193866,-0.000323,0.55859,-0.383156,-0.11227
1515651253505,-0.029769,0.237032,0.051813,0.55856,-0.36516,-0.06853
1515651253515,-0.052347,0.293714,0.107682,0.41119,-0.320051,0.035578
1515651253525,-0.055952,0.336964,0.156812,0.14925,-0.209372,0.242563
1515651253535,-0.04769,0.373839,0.180579,-0.179528,-0.05944,0.487145
1515651253545,-0.015254,0.379729,0.173951,-0.493466,0.080217,0.652688
1515651253555,-0.004383,0.34197,0.144667,-0.705594,0.171462,0.704713
1515651253565,-0.043454,0.30624,0.100673,-0.803108,0.175752,0.64535
1515651253575,-0.091731,0.274058,0.060225,-0.818796,0.071261,0.53454
1515651253586,-0.136525,0.238713,0.019192,-0.801423,-0.126378,0.431176
1515651253596,-0.167278,0.212022,-0.016923,-0.76927,-0.298307,0.337323
1515651253606,-0.161986,0.191491,-0.027071,-0.750093,-0.354554,0.241247
1515651253616,-0.12929,0.166109,-0.018733,-0.778773,-0.332796,0.158085
1515651253626,-0.088912,0.144579,0.004425,-0.843657,-0.228832,0.111267
1515651253636,-0.057529,0.137215,0.020335,-0.914975,-0.089595,0.07724
1515651253646,-0.030638,0.137716,0.015665,-0.969375,0.064756,0.030314
1515651253656,-0.005698,0.14749,0.023274,-1.003568,0.184953,-0.030532
1515651253666,0.015432,0.167325,0.031922,-1.014181,0.189329,-0.055042
1515651253676,0.041142,0.18753,0.034075,-0.974788,0.107958,-0.042298
1515651253686,0.067914,0.20393,0.035151,-0.879083,-0.034574,0.022583
1515651253696,0.086812,0.212188,0.028952,-0.74727,-0.207199,0.127906
1515651253706,0.096322,0.20507,0.029212,-0.609064,-0.394862,0.244964
1515651253717,0.086182,0.191805,0.038738,-0.48789,-0.548326,0.368459
1515651253727,0.056967,0.174301,0.051626,-0.386965,-0.652415,0.462089
1515651253737,0.012721,0.146448,0.064739,-0.321071,-0.734862,0.491794
1515651253747,-0.023891,0.114675,0.072898,-0.278589,-0.778592,0.477791
1515651253757,-0.039526,0.090687,0.090873,-0.278611,-0.77306,0.442563
1515651253767,-0.041717,0.077115,0.106321,-0.322128,-0.746199,0.401087
1515651253777,-0.028711,0.06742,0.114806,-0.393229,-0.704426,0.360775
1515651253787,-0.018184,0.052845,0.114875,-0.502549,-0.630659,0.326993
1515651253797,-0.007797,0.041692,0.115143,-0.6416,-0.529119,0.292232
1515651253807,0.001455,0.035295,0.10223,-0.769063,-0.397583,0.26486
1515651253817,0.008176,0.032686,0.073938,-0.847808,-0.254169,0.247944
1515651253827,0.03204,0.030075,0.039712,-0.86393,-0.152441,0.248953
1515651253837,0.061574,0.026518,0.005287,-0.819495,-0.119146,0.259394
1515651253847,0.084392,0.026229,-0.016731,-0.735699,-0.153279,0.279359
1515651253858,0.104927,0.025405,-0.021752,-0.626449,-0.195911,0.300289
1515651253868,0.113792,0.024316,-0.015778,-0.539416,-0.255743,0.319206
1515651253878,0.12495,0.014691,0.012296,-0.532959,-0.296623,0.35659
1515651253888,0.131619,0.008346,0.041463,-0.575317,-0.305519,0.396275
1515651253898,0.122551,0.002743,0.044208,-0.630469,-0.282238,0.421035
1515651253908,0.109869,-0.011156,0.04252,-0.680491,-0.183874,0.431799
1515651253918,0.090396,-0.022644,0.034645,-0.737929,-0.086565,0.435121
1515651253928,0.071319,-0.029079,0.009302,-0.769861,-0.023438,0.433044
1515651253938,0.064824,-0.035462,-0.021527,-0.758262,0.003355,0.438296
1515651253948,0.071895,-0.043769,-0.044415,-0.723207,-0.030994,0.472346
1515651253958,0.08075,-0.053789,-0.060659,-0.659431,-0.113577,0.527684
1515651253968,0.07571,-0.059958,-0.077912,-0.571201,-0.230397,0.588295
1515651253978,0.062551,-0.070178,-0.086998,-0.481922,-0.344985,0.63182
1515651253989,0.045238,-0.082888,-0.080157,-0.422331,-0.453161,0.660521
1515651253999,0.024425,-0.093874,-0.072246,-0.394581,-0.538922,0.687194
1515651254009,-0.005167,-0.103029,-0.070499,-0.388126,-0.580746,0.698961
1515651254019,-0.044595,-0.109152,-0.076777,-0.391253,-0.606362,0.677658
1515651254029,-0.064852,-0.121937,-0.080845,-0.401836,-0.61383,0.664904
1515651254039,-0.064538,-0.141198,-0.085774,-0.414609,-0.59024,0.65319
1515651254049,-0.060439,-0.159889,-0.092554,-0.422121,-0.550525,0.63396
1515651254059,-0.050791,-0.179473,-0.104262,-0.419039,-0.508624,0.612544
1515651254069,-0.041622,-0.192148,-0.117851,-0.39475,-0.473109,0.595317
1515651254079,-0.033824,-0.204702,-0.127859,-0.351347,-0.454722,0.586571
1515651254089,-0.03346,-0.212351,-0.134852,-0.296247,-0.453474,0.5842
1515651254099,-0.03657,-0.206635,-0.133338,-0.227442,-0.41897,0.581723
1515651254109,-0.043568,-0.194763,-0.119466,-0.155454,-0.387693,0.583511
1515651254120,-0.047398,-0.186758,-0.099059,-0.114154,-0.375811,0.588661
1515651254130,-0.044696,-0.181028,-0.079036,-0.103482,-0.412089,0.565179
1515651254140,-0.073019,-0.169436,-0.04641,-0.126681,-0.467615,0.514109
1515651254150,-0.031277,-0.199023,-0.056689,-0.12862,-0.547981,0.515285
1515651254160,-0.023872,-0.233893,-0.074192,-0.162097,-0.727672,0.64908
1515651254170,-0.065253,-0.20986,-0.09267,-0.13972,-0.78127,0.668264
1515651254180,-0.092889,-0.179338,-0.074396,-0.056268,-0.673409,0.573842
1515651254190,-0.093687,-0.188718,-0.095158,0.019497,-0.446605,0.470765
1515651254200,-0.116728,-0.204886,-0.098295,0.027409,-0.202947,0.385034
1515651254210,-0.128982,-0.205955,-0.100891,-0.016432,-0.031427,0.339108
1515651254220,-0.125311,-0.203958,-0.111932,-0.03695,0.138927,0.326173
1515651254230,-0.085726,-0.185052,-0.111693,-0.029954,0.323426,0.286419
1515651254240,-0.074375,-0.145505,-0.100826,-0.037589,0.416774,0.254313
1515651254251,-0.070771,-0.095636,-0.097761,-0.032238,0.395282,0.270328
1515651254261,-0.053062,-0.075295,-0.108441,-0.018103,0.243805,0.361187
1515651254271,-0.044472,-0.075364,-0.137785,0.039678,0.007643,0.487188
1515651254281,-0.062281,-0.076089,-0.180586,0.163149,-0.2271,0.58302
1515651254291,-0.109369,-0.077178,-0.221349,0.315133,-0.423975,0.622111
1515651254301,-0.161626,-0.089853,-0.249983,0.458475,-0.550037,0.635533
1515651254311,-0.195433,-0.106983,-0.26144,0.565589,-0.590347,0.619116
1515651254321,-0.197894,-0.141719,-0.264099,0.653454,-0.556635,0.571735
1515651254331,-0.190319,-0.181913,-0.262418,0.732738,-0.478877,0.495515
1515651254341,-0.186533,-0.194494,-0.26821,0.801448,-0.41382,0.381991
1515651254351,-0.174534,-0.194662,-0.268463,0.858528,-0.363709,0.250396
1515651254361,-0.140641,-0.203703,-0.25508,0.900837,-0.3416,0.139182
1515651254371,-0.105494,-0.186173,-0.249734,0.945343,-0.350666,0.05041
1515651254381,-0.077974,-0.159389,-0.246473,1.003613,-0.35024,-0.000007
1515651254392,-0.054799,-0.133068,-0.245309,1.07038,-0.356344,-0.024834
1515651254402,-0.039914,-0.10048,-0.24046,1.147762,-0.369884,-0.056105
1515651254412,-0.038257,-0.071787,-0.231944,1.223027,-0.385584,-0.085226
1515651254422,-0.032208,-0.050574,-0.217988,1.282434,-0.416384,-0.103588
1515651254432,-0.019071,-0.027346,-0.195226,1.307958,-0.459083,-0.119654
1515651254442,-0.010493,-0.013232,-0.167082,1.300605,-0.491153,-0.138792
1515651254452,-0.004685,-0.008507,-0.151861,1.26138,-0.485802,-0.161046
1515651254462,-0.01021,-0.006632,-0.139929,1.187066,-0.427978,-0.199231
1515651254472,-0.010323,-0.00461,-0.129243,1.088295,-0.334803,-0.251228
1515651254482,0.003924,-0.014007,-0.124521,0.986325,-0.234167,-0.297877
1515651254492,0.016581,-0.017764,-0.127901,0.890709,-0.129245,-0.340296
1515651254502,0.032393,-0.010165,-0.136768,0.81839,-0.014668,-0.37109
1515651254512,0.058087,-0.00696,-0.1526,0.776868,0.069953,-0.392366
1515651254523,0.08615,-0.01254,-0.174692,0.77778,0.135349,-0.399925
1515651254533,0.1084,-0.011653,-0.191467,0.804179,0.177213,-0.40009
1515651254543,0.126631,-0.000873,-0.19833,0.860288,0.201965,-0.388616
1515651254553,0.146824,0.006534,-0.205949,0.933409,0.203118,-0.361178
1515651254563,0.163123,0.007849,-0.207387,1.019308,0.177537,-0.335897
1515651254573,0.161198,0.02095,-0.204036,1.097801,0.144512,-0.326584
1515651254583,0.158745,0.035036,-0.191303,1.165677,0.117996,-0.339651
1515651254593,0.159292,0.050919,-0.178576,1.212348,0.095728,-0.357968
1515651254603,0.170868,0.081307,-0.166835,1.242051,0.081868,-0.353807
1515651254613,0.195969,0.101391,-0.155869,1.251644,0.061338,-0.313261
1515651254623,0.229549,0.107742,-0.142224,1.232654,0.031964,-0.235225
1515651254633,0.269249,0.104291,-0.145768,1.246634,-0.046791,-0.117773
1515651254643,0.296992,0.084238,-0.19566,1.335981,-0.183186,0.001563
1515651254654,0.294862,0.057869,-0.233796,1.452821,-0.294791,0.107943
1515651254664,0.263716,0.02565,-0.220028,1.492056,-0.298325,0.195309
1515651254674,0.211814,-0.014118,-0.174249,1.411332,-0.209829,0.232901
1515651254684,0.128143,-0.055572,-0.122215,1.211677,-0.018431,0.189745
1515651254694,0.029649,-0.077458,-0.078107,0.948274,0.23849,0.074203
1515651254704,-0.046873,-0.097381,-0.075946,0.720931,0.475392,-0.087363
1515651254714,-0.098799,-0.099213,-0.115169,0.609317,0.607914,-0.302665
1515651254724,-0.114159,-0.0929,-0.176141,0.616614,0.640029,-0.507675
1515651254734,-0.086981,-0.074517,-0.216243,0.671713,0.627994,-0.639184
1515651254744,-0.03079,-0.041847,-0.22026,0.72572,0.637036,-0.701332
1515651254754,0.02534,-0.014071,-0.204748,0.7585,0.668211,-0.702578
1515651254764,0.068365,0.0034,-0.192,0.756297,0.710885,-0.667403
1515651254774,0.101344,0.012808,-0.179512,0.7361,0.744827,-0.610788
1515651254785,0.112688,0.023533,-0.175548,0.732874,0.772337,-0.54356
1515651254795,0.111716,0.0377,-0.16867,0.76251,0.795629,-0.470066
1515651254805,0.109064,0.041178,-0.168242,0.817698,0.768532,-0.374204
1515651254815,0.099739,0.0387,-0.164281,0.897315,0.715799,-0.27948
1515651254825,0.077343,0.042861,-0.150232,0.980184,0.626826,-0.21995
1515651254835,0.053909,0.041106,-0.134528,1.029146,0.533602,-0.188021
1515651254845,0.04076,0.042835,-0.106374,1.03884,0.467034,-0.153823
1515651254855,0.0465,0.043223,-0.091487,1.028371,0.414291,-0.111017
1515651254865,0.051629,0.042412,-0.091211,1.008365,0.361568,-0.077779
1515651254875,0.027924,0.055149,-0.081258,0.979814,0.333663,-0.085093
1515651254885,0.044636,0.053878,-0.074506,0.944828,0.345096,-0.035855
1515651254895,0.107417,0.044865,-0.082804,0.921355,0.442401,0.203219
1515651254905,0.163851,0.04895,-0.085208,0.927528,0.535178,0.293803
1515651254915,0.04831,0.043325,-0.043904,0.927577,0.508596,0.253275
1515651254926,0.093547,0.061615,-0.053342,0.984894,0.474111,0.327793
1515651254936,0.167301,0.055474,-0.049747,1.006393,0.34934,0.438866
1515651254946,0.166072,0.070597,-0.028694,1.071281,0.253532,0.568928
1515651254956,0.154992,0.08325,-0.055775,1.120487,0.055115,0.640481
1515651254966,0.061386,0.099765,-0.045366,1.187553,-0.074652,0.706536
1515651254976,0.077489,0.145609,-0.053641,1.293613,-0.108947,0.772304
1515651254986,0.063913,0.175802,-0.02825,1.366867,-0.163644,0.827564
1515651254996,0.019833,0.207711,0.025416,1.400866,-0.201147,0.848813
1515651255006,0.008529,0.234631,0.061337,1.398836,-0.238829,0.884097
1515651255016,-0.009175,0.247617,0.072075,1.347047,-0.292854,0.94416
1515651255026,-0.040446,0.246836,0.09459,1.244383,-0.34267,0.989487
1515651255036,-0.06014,0.226558,0.116542,1.107739,-0.364633,1.014647
1515651255046,-0.084992,0.208809,0.122388,0.948786,-0.364035,1.014258
1515651255057,-0.109354,0.193502,0.117347,0.781262,-0.32475,0.985037
1515651255067,-0.132531,0.179939,0.109162,0.615766,-0.247826,0.929076
1515651255077,-0.143338,0.164649,0.09816,0.455501,-0.141895,0.860247
1515651255087,-0.129502,0.157706,0.088557,0.320637,-0.018872,0.816905
1515651255097,-0.0973,0.152991,0.074698,0.221885,0.070843,0.814012
1515651255107,-0.051364,0.143377,0.059481,0.168829,0.103794,0.834482
1515651255117,-0.00811,0.133633,0.039802,0.177414,0.058683,0.862253
1515651255127,0.019627,0.126944,0.021662,0.251804,-0.029174,0.907936
1515651255137,0.052278,0.114506,0.016132,0.366475,-0.126491,0.940657
1515651255147,0.061917,0.097932,0.01295,0.510837,-0.235413,0.955124
1515651255157,0.060132,0.082804,0.003811,0.668961,-0.342972,0.91936
1515651255167,0.056573,0.068034,0.005664,0.824873,-0.412862,0.848335
1515651255177,0.055707,0.056044,0.025183,0.957409,-0.453928,0.783778
1515651255188,0.066033,0.053461,0.057992,1.059215,-0.495113,0.724691
1515651255198,0.077639,0.059736,0.095673,1.125033,-0.553564,0.668979
1515651255208,0.084629,0.071452,0.135513,1.14631,-0.594025,0.631576
1515651255218,0.09756,0.090853,0.178621,1.110361,-0.631537,0.612563
1515651255228,0.113859,0.109726,0.215661,1.019341,-0.683191,0.603411
1515651255238,0.12406,0.114916,0.240743,0.882814,-0.759693,0.608359
1515651255248,0.123685,0.117549,0.253205,0.717599,-0.800936,0.615519
1515651255258,0.108598,0.138977,0.25702,0.535316,-0.79188,0.623757
1515651255268,0.094307,0.155559,0.237786,0.378471,-0.784917,0.637227
1515651255278,0.082968,0.158898,0.198235,0.258738,-0.788535,0.646282
1515651255288,0.057884,0.167848,0.156452,0.182405,-0.773762,0.645526
1515651255298,0.034662,0.175522,0.117414,0.142089,-0.752445,0.643536
1515651255308,0.025457,0.174302,0.092833,0.09436,-0.730201,0.666125
1515651255319,0.018758,0.168558,0.087433,0.005298,-0.705939,0.68889
1515651255329,0.009308,0.157408,0.086299,-0.103926,-0.668865,0.708521
1515651255339,0.003987,0.144679,0.072789,-0.211014,-0.638277,0.740961
1515651255349,0.001724,0.127354,0.041221,-0.301135,-0.613044,0.782945
1515651255359,-0.00649,0.105191,0.000558,-0.359435,-0.602618,0.805596
1515651255369,-0.01873,0.085187,-0.043315,-0.363702,-0.5898,0.810936
1515651255379,-0.028,0.070733,-0.086598,-0.323435,-0.588634,0.816099
1515651255389,-0.041661,0.059293,-0.12131,-0.256729,-0.566904,0.795506
1515651255399,-0.051683,0.0475,-0.144381,-0.17843,-0.518268,0.757753
1515651255409,-0.039966,0.032182,-0.157786,-0.092715,-0.466475,0.73597
1515651255419,-0.023145,0.022047,-0.163678,-0.011183,-0.437328,0.740923
1515651255429,-0.006219,0.011539,-0.15891,0.037516,-0.41376,0.770573
1515651255439,0.008945,-0.005148,-0.143963,0.027972,-0.405473,0.821838
1515651255449,0.01277,-0.0267,-0.13748,-0.013318,-0.417618,0.868997
1515651255460,0.004459,-0.050212,-0.149434,-0.053545,-0.432888,0.899075
1515651255470,-0.013417,-0.074572,-0.170407,-0.081094,-0.434027,0.895991
1515651255480,-0.038434,-0.092761,-0.190909,-0.094905,-0.424154,0.841601
1515651255490,-0.057937,-0.101597,-0.209469,-0.079112,-0.386223,0.764632
1515651255500,-0.047521,-0.107455,-0.225797,-0.05061,-0.344049,0.703617
1515651255510,-0.010661,-0.105912,-0.233193,-0.029485,-0.316034,0.684281
1515651255520,0.032493,-0.108475,-0.232997,-0.031643,-0.297875,0.693874
1515651255530,0.064955,-0.129414,-0.240127,-0.042275,-0.280813,0.703505
1515651255540,0.086917,-0.16377,-0.255839,-0.043369,-0.264777,0.709894
1515651255550,0.1036,-0.192147,-0.276778,-0.010558,-0.245434,0.718265
1515651255560,0.11663,-0.217444,-0.292496,0.059356,-0.231445,0.747836
1515651255570,0.121952,-0.23928,-0.30047,0.165357,-0.243081,0.781556
1515651255580,0.118589,-0.267742,-0.298424,0.294724,-0.278207,0.813069
1515651255591,0.090558,-0.289556,-0.283015,0.421875,-0.274578,0.806119
1515651255601,0.054861,-0.302592,-0.246062,0.495954,-0.236573,0.749184
1515651255611,0.030046,-0.3171,-0.198639,0.510644,-0.179361,0.672196
1515651255621,0.015557,-0.32635,-0.161146,0.494685,-0.15868,0.597521
1515651255631,0.009584,-0.332197,-0.146942,0.479851,-0.164816,0.530341
1515651255641,0.002234,-0.333216,-0.137769,0.472456,-0.180653,0.479158
1515651255651,-0.009902,-0.332996,-0.132858,0.46507,-0.200799,0.432254
1515651255661,-0.030738,-0.334851,-0.135922,0.478867,-0.215522,0.385248
1515651255671,-0.047805,-0.337992,-0.144054,0.505335,-0.211871,0.313613
1515651255681,-0.074776,-0.329536,-0.148478,0.525378,-0.180314,0.228097
1515651255691,-0.106651,-0.306141,-0.138973,0.523059,-0.103709,0.119141
1515651255701,-0.122444,-0.27462,-0.113508,0.46242,-0.009082,0.01361
1515651255711,-0.120818,-0.238506,-0.092915,0.364705,0.086288,-0.048005
1515651255722,-0.113785,-0.200884,-0.089238,0.277563,0.194359,-0.072319
1515651255732,-0.117194,-0.156558,-0.095725,0.207393,0.297028,-0.077483
1515651255742,-0.119344,-0.12809,-0.102849,0.160502,0.415801,-0.075297
1515651255752,-0.111279,-0.118243,-0.108724,0.143292,0.529322,-0.076432
1515651255762,-0.108152,-0.102607,-0.113092,0.156898,0.602351,-0.103266
1515651255772,-0.141403,-0.04114,-0.113506,0.180168,0.617634,-0.146082
1515651255782,-0.188928,0.073908,-0.100298,0.222517,0.635912,-0.133477
1515651255792,-0.179484,0.154071,-0.091448,0.276705,0.58508,-0.005558
1515651255802,-0.155045,0.173088,-0.099781,0.349165,0.428833,0.217413
1515651255812,-0.170647,0.14946,-0.128589,0.480139,0.168874,0.432792
1515651255822,-0.223338,0.102757,-0.17139,0.656719,-0.120409,0.540207
1515651255832,-0.290582,0.0488,-0.191655,0.835233,-0.342518,0.499161
1515651255842,-0.334149,-0.011762,-0.177461,0.936085,-0.442084,0.330207
1515651255852,-0.324252,-0.057549,-0.129271,0.90414,-0.399192,0.089062
1515651255863,-0.268293,-0.080334,-0.071153,0.74255,-0.193796,-0.160274
1515651255873,-0.168801,-0.088098,-0.015966,0.500182,0.127749,-0.331492
1515651255883,-0.046649,-0.077923,0.007315,0.258914,0.443393,-0.392766
1515651255893,0.059663,-0.047074,-0.002867,0.099456,0.673103,-0.360352
1515651255903,0.12605,-0.011573,-0.033738,0.044159,0.769959,-0.265239
1515651255913,0.164703,0.017592,-0.068706,0.100462,0.722311,-0.129864
1515651255923,0.178402,0.034207,-0.113493,0.26098,0.512056,0.019149
1515651255933,0.157674,0.04052,-0.158672,0.49908,0.200311,0.156214
1515651255943,0.113575,0.043247,-0.188144,0.800803,-0.135667,0.249277
1515651255953,0.05786,0.041154,-0.201407,1.090781,-0.439299,0.294323
1515651255963,0.00232,0.033753,-0.185678,1.300029,-0.660368,0.277696
1515651255973,-0.032234,0.014179,-0.152312,1.414679,-0.759288,0.202611
1515651255983,-0.033091,-0.009742,-0.109652,1.4273,-0.725622,0.119259
1515651255994,-0.013345,-0.013641,-0.064265,1.334829,-0.60672,0.06827
1515651256004,0.01768,-0.013609,-0.028038,1.196717,-0.449577,0.055854
1515651256014,0.049265,-0.02683,-0.014225,1.039615,-0.326946,0.077718
1515651256024,0.063556,-0.048478,-0.022707,0.901652,-0.234215,0.091
1515651256034,0.05187,-0.060091,-0.03923,0.81986,-0.147593,0.074161
1515651256044,0.037836,-0.065402,-0.065344,0.789028,-0.105742,0.042218
1515651256054,0.031851,-0.072476,-0.095606,0.795414,-0.122668,0.00272
1515651256064,0.018507,-0.079825,-0.123333,0.828369,-0.174822,-0.046455
1515651256074,-0.006462,-0.082401,-0.155046,0.881377,-0.192529,-0.11604
1515651256084,-0.023192,-0.075422,-0.173166,0.93958,-0.165191,-0.192108
1515651256094,-0.028271,-0.063373,-0.181806,0.982928,-0.12834,-0.251042
1515651256104,-0.030451,-0.051745,-0.179528,1.006115,-0.077654,-0.303506
1515651256114,-0.026905,-0.03917,-0.174446,1.021828,-0.001265,-0.358109
1515651256125,-0.010316,-0.029974,-0.167458,1.049166,0.091112,-0.389296
1515651256135,0.004392,-0.023965,-0.15689,1.071273,0.154488,-0.408683
1515651256145,0.0145,-0.015991,-0.137154,1.105142,0.170757,-0.428061
1515651256155,0.022617,-0.009854,-0.121797,1.14553,0.116296,-0.439909
1515651256165,0.027524,-0.011334,-0.109645,1.193366,0.047919,-0.449634
1515651256175,0.019359,-0.00918,-0.090424,1.210454,-0.014059,-0.472044
1515651256185,0.010593,-0.009938,-0.061382,1.176628,-0.05473,-0.500668
1515651256195,-0.004209,-0.007328,-0.0401,1.110946,-0.066516,-0.539868
1515651256205,-0.019115,-0.007264,-0.036103,1.059951,-0.013894,-0.59522
1515651256215,-0.030655,-0.002768,-0.034352,1.024748,0.08171,-0.6667
1515651256225,-0.034092,0.015456,-0.021299,0.97578,0.176074,-0.712507
1515651256235,-0.022257,0.035201,0.005409,0.906695,0.266993,-0.724067
1515651256245,-0.005067,0.048788,0.030965,0.815419,0.33203,-0.71522
1515651256256,0.012803,0.05827,0.048204,0.728484,0.354173,-0.695669
1515651256266,0.024951,0.068028,0.0572,0.639497,0.345195,-0.667525
1515651256276,0.029176,0.073611,0.06152,0.559018,0.322325,-0.641535
1515651256286,0.029015,0.071832,0.060444,0.481707,0.303798,-0.625171
1515651256296,0.024783,0.068919,0.051486,0.423464,0.288527,-0.605692
1515651256306,0.020658,0.067544,0.034623,0.400178,0.278724,-0.587434
1515651256316,0.01019,0.062275,0.016711,0.40127,0.263683,-0.578875
1515651256326,-0.003097,0.059455,0.012803,0.401298,0.251855,-0.570321
1515651256336,-0.015075,0.063272,0.020942,0.389599,0.273191,-0.558561
1515651256346,-0.012237,0.06429,0.027907,0.367324,0.285858,-0.533932
1515651256356,-0.013564,0.067215,0.026634,0.339784,0.283461,-0.499653
1515651256366,-0.021906,0.07748,0.025024,0.303764,0.283187,-0.46641
1515651256376,-0.021713,0.084046,0.017661,0.27832,0.293672,-0.435367
1515651256386,-0.017683,0.08221,0.008311,0.266622,0.315949,-0.397986
1515651256397,-0.012171,0.08223,-0.002164,0.273985,0.343635,-0.359623
1515651256407,-0.004019,0.08643,-0.019289,0.316353,0.355404,-0.330999
1515651256417,0.002569,0.086771,-0.037092,0.39692,0.342667,-0.306773
1515651256427,0.007768,0.093617,-0.042792,0.492351,0.319219,-0.274062
1515651256437,0.015075,0.104218,-0.04265,0.596287,0.285111,-0.246718
1515651256447,0.021506,0.110532,-0.041084,0.700189,0.263879,-0.223652
1515651256457,0.029451,0.117847,-0.021589,0.781867,0.228624,-0.195132
1515651256467,0.035689,0.133157,0.003342,0.84666,0.163321,-0.166507
1515651256477,0.02347,0.162708,0.020128,0.912598,0.062553,-0.115428
1515651256487,-0.004144,0.22273,0.041663,0.947903,-0.079154,-0.037482
1515651256497,-0.028552,0.288248,0.071624,0.936645,-0.244769,0.080186
1515651256507,-0.051125,0.333906,0.084638,0.905266,-0.412748,0.229965
1515651256517,-0.069988,0.3429,0.082071,0.856859,-0.548582,0.369101
1515651256528,-0.08372,0.314264,0.083002,0.774429,-0.641354,0.446422
1515651256538,-0.093965,0.263741,0.086615,0.61447,-0.665392,0.443934
1515651256548,-0.092699,0.211109,0.098705,0.386384,-0.556557,0.396739
1515651256558,-0.077003,0.171111,0.099497,0.13052,-0.348141,0.344204
1515651256568,-0.054312,0.144509,0.072032,-0.078834,-0.087069,0.288199
1515651256578,-0.035473,0.1333,0.041861,-0.214008,0.174222,0.23294
1515651256588,-0.01764,0.146396,0.020644,-0.264264,0.371405,0.193414
1515651256598,0.007203,0.175034,0.011666,-0.215681,0.443323,0.195254
1515651256608,0.044167,0.190578,0.013763,-0.090475,0.372866,0.219358
1515651256618,0.078097,0.193567,0.031412,0.057217,0.200653,0.252027
1515651256628,0.104893,0.189591,0.062763,0.179553,-0.008023,0.276316
1515651256638,0.125066,0.171916,0.094096,0.25628,-0.199582,0.278361
1515651256648,0.14153,0.149657,0.119224,0.277787,-0.341912,0.258167
1515651256659,0.151516,0.137377,0.144362,0.247185,-0.402925,0.228488
1515651256669,0.158168,0.130839,0.161225,0.178239,-0.37517,0.2074
1515651256679,0.154837,0.134359,0.174222,0.086885,-0.277901,0.198064
1515651256689,0.152634,0.147409,0.181038,-0.018244,-0.179639,0.196255
1515651256699,0.152659,0.157097,0.168447,-0.097847,-0.123111,0.199729
1515651256709,0.152981,0.162239,0.152198,-0.15726,-0.088073,0.227691
1515651256719,0.153202,0.16889,0.141886,-0.212409,-0.062733,0.26952
1515651256729,0.146545,0.180849,0.134969,-0.269596,-0.073848,0.315676
1515651256739,0.124812,0.181945,0.122077,-0.319285,-0.12236,0.345835
1515651256749,0.096328,0.177405,0.113694,-0.35201,-0.176124,0.365255
1515651256759,0.070045,0.176503,0.101991,-0.373088,-0.226575,0.37181
1515651256769,0.030882,0.183087,0.074135,-0.377314,-0.232974,0.363297
1515651256779,0.015196,0.172164,0.058922,-0.371054,-0.18808,0.387769
1515651256790,0.025283,0.159828,0.044889,-0.357436,-0.110168,0.455926
1515651256800,0.039024,0.14725,0.029455,-0.323735,-0.005591,0.560255
1515651256810,0.048093,0.12554,0.014344,-0.285801,0.104222,0.691245
1515651256820,0.054667,0.103011,-0.00109,-0.237244,0.199238,0.788049
1515651256830,0.050664,0.073693,-0.007344,-0.20871,0.23669,0.814565
1515651256840,0.045638,0.046596,-0.003143,-0.201294,0.23473,0.782512
1515651256850,0.032646,0.029676,0.00826,-0.201369,0.265902,0.762193
1515651256860,0.007734,0.025671,0.015942,-0.182439,0.332284,0.782311
1515651256870,0.001741,0.02224,0.019217,-0.166841,0.471325,0.839709
1515651256880,0.03476,0.008272,0.042378,-0.203216,0.632698,0.899435
1515651256890,0.066911,-0.013052,0.070879,-0.310409,0.712453,0.955297
1515651256900,0.084394,-0.034371,0.095065,-0.432182,0.676554,0.991084
1515651256910,0.083326,-0.052495,0.103999,-0.565427,0.556033,1.016353
1515651256920,0.039522,-0.062241,0.109131,-0.683893,0.453006,0.979637
1515651256931,-0.001012,-0.048573,0.087985,-0.747325,0.377167,0.895679
1515651256941,0.005153,-0.055913,0.052234,-0.755703,0.326083,0.822124
1515651256951,0.007391,-0.084629,0.033472,-0.766136,0.243969,0.739015
1515651256961,0.007913,-0.103614,0.033685,-0.786078,0.148992,0.651694
1515651256971,0.021964,-0.093157,0.031999,-0.816036,-0.192021,0.696012
1515651256981,0.04836,-0.040499,0.053105,-0.860091,-0.394627,0.692185
1515651256991,0.044862,-0.156262,0.027157,-0.911014,-0.369041,0.687034
1515651257001,0.013447,-0.171491,-0.026503,-0.897478,-0.2721,0.591857
1515651257011,0.005377,-0.095448,-0.049794,-0.856468,-0.129507,0.596841
1515651257021,0.007041,-0.096592,-0.067409,-0.810047,-0.032082,0.639211
1515651257031,0.008387,-0.131386,-0.084296,-0.739038,-0.035151,0.652788
1515651257041,0.018066,-0.143448,-0.10098,-0.65411,-0.100448,0.692004
1515651257051,0.023065,-0.141684,-0.105987,-0.566962,-0.208647,0.741934
1515651257062,0.009251,-0.148568,-0.126718,-0.446937,-0.331607,0.763989
1515651257072,-0.015468,-0.159974,-0.146713,-0.316323,-0.45541,0.746508
1515651257082,-0.032512,-0.169369,-0.159123,-0.191085,-0.546011,0.727945
1515651257092,-0.049283,-0.174194,-0.147148,-0.101952,-0.603438,0.695615
1515651257102,-0.063243,-0.175068,-0.140182,-0.048906,-0.634129,0.651659
1515651257112,-0.07223,-0.177946,-0.126877,-0.029808,-0.646832,0.63238
1515651257122,-0.077128,-0.178213,-0.126329,-0.027595,-0.689693,0.634563
1515651257132,-0.084649,-0.174913,-0.123892,-0.032841,-0.712251,0.643153
1515651257142,-0.110609,-0.169252,-0.118143,-0.07635,-0.682435,0.653972
1515651257152,-0.139974,-0.16453,-0.12379,-0.115745,-0.597946,0.660439
1515651257162,-0.144648,-0.176308,-0.130154,-0.130827,-0.489754,0.655035
1515651257172,-0.164155,-0.186,-0.145274,-0.121449,-0.420006,0.638897
1515651257182,-0.191284,-0.182869,-0.1581,-0.083443,-0.359738,0.607704
1515651257193,-0.196499,-0.189599,-0.158656,-0.033738,-0.318699,0.572216
1515651257203,-0.191082,-0.202557,-0.162139,0.022357,-0.291591,0.540989
1515651257213,-0.176398,-0.21632,-0.156228,0.085894,-0.27519,0.512945
1515651257223,-0.161762,-0.224749,-0.151713,0.153706,-0.273802,0.490238
1515651257233,-0.150357,-0.238038,-0.148684,0.236368,-0.278835,0.474948
1515651257243,-0.161611,-0.245523,-0.144861,0.333899,-0.300886,0.443608
1515651257253,-0.203681,-0.223846,-0.138735,0.409182,-0.326165,0.401691
1515651257263,-0.233752,-0.182537,-0.117718,0.45052,-0.331327,0.387641
1515651257273,-0.246097,-0.155782,-0.095662,0.457933,-0.328133,0.396144
1515651257283,-0.267912,-0.141544,-0.08209,0.455835,-0.336764,0.406839
1515651257293,-0.294776,-0.13756,-0.081401,0.461202,-0.366779,0.413258
1515651257303,-0.316721,-0.15195,-0.08703,0.4666,-0.413776,0.387675
1515651257313,-0.345089,-0.166301,-0.092411,0.463514,-0.461689,0.32584
1515651257324,-0.372405,-0.168812,-0.087854,0.430648,-0.464545,0.234189
1515651257334,-0.376302,-0.181634,-0.078312,0.3648,-0.410609,0.121259
1515651257344,-0.362882,-0.194914,-0.069958,0.27024,-0.312741,-0.009752
1515651257354,-0.343533,-0.198752,-0.070297,0.160742,-0.170938,-0.151425
1515651257364,-0.302135,-0.200797,-0.07036,0.063894,-0.000176,-0.292118
1515651257374,-0.247433,-0.199859,-0.072666,-0.011706,0.149133,-0.414732
1515651257384,-0.184532,-0.193703,-0.078033,-0.054359,0.257684,-0.508616
1515651257394,-0.118671,-0.183698,-0.076596,-0.066189,0.328675,-0.571631
1515651257404,-0.059668,-0.170865,-0.076116,-0.042954,0.358936,-0.610191
1515651257414,-0.000803,-0.159642,-0.07536,0.018553,0.335683,-0.63711
1515651257424,0.043727,-0.157689,-0.086599,0.117214,0.28158,-0.685498
1515651257434,0.069914,-0.150364,-0.09456,0.256173,0.212635,-0.741509
1515651257444,0.086501,-0.124704,-0.096615,0.413115,0.159715,-0.777336
1515651257454,0.111117,-0.089288,-0.079947,0.55842,0.101274,-0.78749
1515651257465,0.139697,-0.058149,-0.062796,0.673066,0.011617,-0.786799
1515651257475,0.1633,-0.028723,-0.049296,0.780259,-0.060984,-0.77329
1515651257485,0.175169,0.003478,-0.033462,0.85453,-0.098456,-0.734067
1515651257495,0.170133,0.03732,-0.027582,0.886429,-0.138401,-0.654099
1515651257505,0.170509,0.055484,-0.024578,0.882245,-0.150769,-0.539855
1515651257515,0.155719,0.063117,-0.023601,0.862182,-0.170658,-0.430871
1515651257525,0.127011,0.06455,-0.038792,0.843256,-0.22584,-0.333591
1515651257535,0.08833,0.056049,-0.057955,0.826434,-0.278704,-0.270477
1515651257545,0.048798,0.044652,-0.065735,0.795749,-0.296044,-0.24898
1515651257555,0.020294,0.035689,-0.066732,0.74695,-0.273612,-0.264811
1515651257565,0.003701,0.023567,-0.072915,0.69388,-0.239307,-0.300916
1515651257575,-0.002297,0.013973,-0.087756,0.664126,-0.206013,-0.334987
1515651257585,0.004849,0.007502,-0.109015,0.665101,-0.170558,-0.354248
1515651257596,0.015319,0.00329,-0.124977,0.699989,-0.13506,-0.361913
1515651257606,0.029131,-0.006062,-0.13191,0.752937,-0.11676,-0.34722
1515651257616,0.036977,-0.01282,-0.130724,0.812308,-0.127407,-0.325045
1515651257626,0.03766,-0.016892,-0.114935,0.861148,-0.168075,-0.30492
1515651257636,0.03504,-0.023382,-0.090267,0.885608,-0.206593,-0.300707
1515651257646,0.029569,-0.027293,-0.060207,0.8602,-0.218445,-0.302716
1515651257656,0.019304,-0.029962,-0.028699,0.795544,-0.214242,-0.32486
1515651257666,0.008504,-0.03425,-0.015919,0.696936,-0.191853,-0.361827
1515651257676,0.005647,-0.041721,-0.015267,0.597228,-0.152305,-0.403079
1515651257686,0.005651,-0.050231,-0.020555,0.496405,-0.08919,-0.444352
1515651257696,0.004655,-0.048197,-0.029238,0.396596,-0.004653,-0.483525
1515651257706,-0.001827,-0.036599,-0.042109,0.334874,0.108938,-0.525037
1515651257716,-0.000326,-0.027062,-0.058241,0.306023,0.211902,-0.564537
1515651257727,0.020588,-0.02484,-0.068974,0.302681,0.281633,-0.584886
1515651257737,0.044575,-0.023208,-0.070596,0.333355,0.306378,-0.587183
1515651257747,0.062265,-0.019714,-0.066695,0.376801,0.308599,-0.576699
1515651257757,0.072825,-0.01319,-0.053514,0.423512,0.271209,-0.570448
1515651257767,0.083315,-0.008361,-0.040726,0.462881,0.201592,-0.551315
1515651257777,0.091114,-0.002136,-0.028217,0.489523,0.137266,-0.526799
1515651257787,0.089132,0.009032,-0.016423,0.504476,0.086843,-0.504383
1515651257797,0.080802,0.022121,-0.001749,0.499224,0.067467,-0.489393
1515651257807,0.071176,0.029967,0.011208,0.468519,0.058714,-0.471108
1515651257817,0.069333,0.031726,0.020533,0.432509,0.053109,-0.443195
1515651257827,0.065082,0.037351,0.022058,0.414534,0.038978,-0.413215
1515651257837,0.061104,0.046855,0.015196,0.423047,0.024985,-0.395088
1515651257847,0.057465,0.053356,0.011183,0.458034,0.017521,-0.381348
1515651257858,0.051718,0.05901,0.010328,0.497293,-0.002819,-0.36121
1515651257868,0.054534,0.061035,0.012843,0.522846,-0.052174,-0.331376
1515651257878,0.057139,0.06466,0.02212,0.521888,-0.094137,-0.296095
1515651257888,0.050063,0.07135,0.032207,0.50925,-0.125411,-0.262913
1515651257898,0.041828,0.07893,0.037156,0.491281,-0.142746,-0.235063
1515651257908,0.034679,0.083942,0.036309,0.471173,-0.151533,-0.204009
1515651257918,0.026717,0.088697,0.034876,0.457381,-0.142049,-0.18048
1515651257928,0.015771,0.092308,0.026403,0.444677,-0.145397,-0.161209
1515651257938,0.000527,0.091733,0.01065,0.45102,-0.138917,-0.167648
1515651257948,-0.020065,0.093291,-0.008017,0.483778,-0.101241,-0.183841
1515651257958,-0.038939,0.1115,-0.011452,0.518666,-0.066755,-0.203246
1515651257968,-0.055496,0.153272,-0.005314,0.550453,-0.064538,-0.199116
1515651257978,-0.056462,0.202307,0.014058,0.539947,-0.10016,-0.152062
1515651257988,-0.049165,0.241951,0.037059,0.492398,-0.151073,-0.068543
1515651257999,-0.058212,0.279723,0.058706,0.408768,-0.177572,0.038586
1515651258009,-0.066333,0.316425,0.076083,0.297506,-0.166789,0.172476
1515651258019,-0.060033,0.323474,0.078203,0.179912,-0.164654,0.318141
1515651258029,-0.051466,0.289747,0.062543,0.082503,-0.183895,0.465875
1515651258039,-0.058557,0.235293,0.034128,0.033843,-0.211328,0.566451
1515651258049,-0.081123,0.176857,-0.006479,0.046623,-0.236096,0.599517
1515651258059,-0.100901,0.121621,-0.036503,0.107035,-0.241239,0.592861
1515651258069,-0.120936,0.080961,-0.056732,0.208694,-0.216035,0.541163
1515651258079,-0.138538,0.068738,-0.056783,0.323024,-0.173485,0.456298
1515651258089,-0.138968,0.073827,-0.034942,0.41087,-0.135258,0.363012
1515651258099,-0.113078,0.086025,0.002814,0.457433,-0.116472,0.276331
1515651258109,-0.070762,0.105943,0.042509,0.455303,-0.118323,0.216569
1515651258119,-0.0218,0.128145,0.075059,0.416101,-0.123681,0.193261
1515651258130,0.030803,0.142257,0.096347,0.356759,-0.123833,0.188176
1515651258140,0.078779,0.136541,0.106024,0.289975,-0.112287,0.195918
1515651258150,0.1097,0.125883,0.101668,0.224211,-0.081462,0.205763
1515651258160,0.124072,0.119581,0.094701,0.181701,-0.027951,0.192002
1515651258170,0.126477,0.108975,0.088644,0.152943,0.032135,0.15683
1515651258180,0.120535,0.099521,0.089541,0.139017,0.094474,0.108779
1515651258190,0.112398,0.102978,0.098614,0.130417,0.141914,0.043647
1515651258200,0.113319,0.111228,0.126624,0.09009,0.159356,-0.040526
1515651258210,0.123146,0.126853,0.16625,0.006337,0.170116,-0.099957
1515651258220,0.13821,0.150405,0.199492,-0.112362,0.174177,-0.12614
1515651258230,0.151024,0.172517,0.218903,-0.25329,0.169471,-0.126599
1515651258240,0.160877,0.190092,0.226569,-0.409044,0.163527,-0.102444
1515651258250,0.164807,0.203201,0.222933,-0.56588,0.171397,-0.055891
1515651258261,0.147654,0.212997,0.205719,-0.707888,0.181438,-0.006197
1515651258271,0.108348,0.211101,0.170948,-0.814936,0.190709,0.003857
1515651258281,0.058944,0.204692,0.137092,-0.871217,0.241017,-0.020515
1515651258291,0.038306,0.19415,0.111525,-0.908481,0.314005,-0.069548
1515651258301,0.03894,0.177457,0.10792,-0.988259,0.446719,-0.089654
1515651258311,0.022127,0.164443,0.11454,-1.11145,0.570448,-0.05299
1515651258321,0.018872,0.15475,0.099318,-1.205765,0.576374,-0.008832
1515651258331,0.03311,0.132249,0.085368,-1.274553,0.542677,0.047004
1515651258341,0.040553,0.117759,0.086376,-1.340131,0.497075,0.128463
1515651258351,0.050277,0.10688,0.056596,-1.226994,0.151595,0.294927
1515651258361,0.079841,0.097763,-0.044176,-0.88239,-0.392684,0.504413
1515651258371,0.046964,0.013653,-0.059827,-0.709022,-0.673145,0.559528
1515651258381,0.012897,-0.011419,-0.018253,-0.582469,-0.8691,0.613671
1515651258392,0.009675,0.016799,-0.019414,-0.48088,-0.808689,0.591814
1515651258402,-0.072017,-0.039622,-0.002601,-0.414622,-0.590713,0.534687
1515651258412,-0.094984,-0.029829,-0.036859,-0.248504,-0.482838,0.486877
1515651258422,-0.068689,-0.04003,-0.036021,-0.149181,-0.359115,0.443602
1515651258432,-0.043869,-0.056764,0.00659,-0.132576,-0.207774,0.398511
1515651258442,-0.029579,-0.066473,0.025823,-0.121206,-0.084316,0.355613
1515651258452,-0.006992,-0.068944,0.032937,-0.10751,-0.050917,0.326691
1515651258462,0.02624,-0.066503,0.037056,-0.081982,-0.094709,0.314895
1515651258472,0.056466,-0.059506,0.039805,-0.039377,-0.191059,0.325508
1515651258482,0.072297,-0.05281,0.039284,0.007514,-0.307796,0.344667
1515651258492,0.081845,-0.048246,0.044131,0.038487,-0.412854,0.375622
1515651258502,0.082186,-0.040802,0.049198,0.061954,-0.478293,0.406558
1515651258512,0.082257,-0.0371,0.046611,0.070456,-0.484915,0.450294
1515651258522,0.074586,-0.032218,0.044507,0.044849,-0.401679,0.501534
1515651258533,0.058349,-0.034389,0.042194,0.002244,-0.301289,0.54002
1515651258543,0.056439,-0.04457,0.046409,-0.041346,-0.234061,0.567874
1515651258553,0.052299,-0.047194,0.05688,-0.110312,-0.190516,0.603333
1515651258563,0.0508,-0.052386,0.058961,-0.194076,-0.166228,0.623941
1515651258573,0.044786,-0.061794,0.052094,-0.259815,-0.145114,0.647674
1515651258583,0.032075,-0.065851,0.039245,-0.303264,-0.14315,0.657463
1515651258593,0.019368,-0.070899,0.025361,-0.330814,-0.146396,0.646916
1515651258603,0.007562,-0.074924,0.014866,-0.343541,-0.143161,0.635225
1515651258613,-0.00144,-0.072477,0.00299,-0.344609,-0.138862,0.632019
1515651258623,-0.005432,-0.071171,-0.00383,-0.325572,-0.121684,0.636185
1515651258633,-0.015145,-0.063869,-0.004375,-0.300178,-0.104503,0.643531
1515651258643,-0.029396,-0.055342,-0.002687,-0.270516,-0.100155,0.648736
1515651258653,-0.039007,-0.049247,0.006079,-0.248245,-0.107587,0.648649
1515651258664,-0.047883,-0.040834,0.018749,-0.245051,-0.114032,0.653981
1515651258674,-0.051665,-0.029433,0.032931,-0.271554,-0.106741,0.679704
1515651258684,-0.04622,-0.024502,0.042605,-0.325615,-0.095284,0.713009
1515651258694,-0.039023,-0.031272,0.047265,-0.391352,-0.075269,0.742083
1515651258704,-0.051049,-0.0475,0.034147,-0.442251,-0.058355,0.757222
1515651258714,-0.075555,-0.062215,0.01218,-0.46248,-0.016588,0.748717
1515651258724,-0.101173,-0.073586,-0.004648,-0.454095,0.021096,0.716612
1515651258734,-0.123994,-0.078465,-0.015929,-0.43616,0.050311,0.669538
1515651258744,-0.135015,-0.079983,-0.020545,-0.4076,0.068829,0.62563
1515651258754,-0.14451,-0.073545,-0.022858,-0.373712,0.076554,0.600924
1515651258764,-0.168261,-0.033353,-0.020349,-0.349327,0.070237,0.593356
1515651258774,-0.180332,0.013714,-0.009588,-0.331284,0.061577,0.622105
1515651258784,-0.173653,0.023869,-0.00744,-0.323767,0.024826,0.691499
1515651258795,-0.185469,0.02456,-0.0187,-0.320459,-0.023781,0.772666
1515651258805,-0.209183,0.030947,-0.022265,-0.335303,-0.012398,0.84423
1515651258815,-0.228143,0.023621,-0.025995,-0.373571,0.046141,0.898759
1515651258825,-0.241301,-0.004116,-0.048649,-0.411966,0.160468,0.938273
1515651258835,-0.26035,-0.038998,-0.082538,-0.438718,0.276136,0.93077
1515651258845,-0.282082,-0.0806,-0.116919,-0.448504,0.380357,0.865571
1515651258855,-0.280506,-0.127402,-0.143599,-0.454039,0.475069,0.77582
1515651258865,-0.253675,-0.162131,-0.155634,-0.459525,0.549437,0.683955
1515651258875,-0.228717,-0.180848,-0.166345,-0.449082,0.608876,0.587768
1515651258885,-0.208162,-0.181951,-0.181104,-0.391887,0.611638,0.497859
1515651258895,-0.171781,-0.186035,-0.199013,-0.288907,0.518023,0.426023
1515651258905,-0.133189,-0.1849,-0.205473,-0.149735,0.353735,0.367996
1515651258915,-0.096753,-0.170048,-0.196981,0.001189,0.150748,0.343053
1515651258926,-0.067007,-0.156797,-0.19123,0.138339,-0.050299,0.350191
1515651258936,-0.058374,-0.159157,-0.184409,0.28078,-0.251207,0.33276
1515651258946,-0.065244,-0.176383,-0.186056,0.453969,-0.46361,0.275715
1515651258956,-0.087731,-0.206819,-0.208553,0.659925,-0.644524,0.154444
1515651258966,-0.101093,-0.241756,-0.216028,0.870938,-0.722383,-0.004333
1515651258976,-0.093418,-0.259194,-0.194319,1.025588,-0.708393,-0.138435
1515651258986,-0.066788,-0.257564,-0.159907,1.119698,-0.629381,-0.242473
1515651258996,-0.030783,-0.249433,-0.119151,1.179847,-0.525936,-0.325045
1515651259006,-0.002775,-0.231198,-0.07973,1.21141,-0.431227,-0.391477
1515651259016,0.027683,-0.201859,-0.039482,1.203825,-0.359306,-0.423558
1515651259026,0.055566,-0.170481,-0.00097,1.163439,-0.307921,-0.439461
1515651259036,0.07091,-0.145617,0.031445,1.098689,-0.258843,-0.437111
1515651259046,0.073021,-0.117489,0.056221,1.011719,-0.222779,-0.416505
1515651259056,0.068037,-0.095487,0.072463,0.910999,-0.197497,-0.390489
1515651259067,0.055667,-0.080196,0.076858,0.811383,-0.192542,-0.36979
1515651259077,0.037268,-0.062548,0.076867,0.710756,-0.209012,-0.350127
1515651259087,0.021722,-0.0485,0.073457,0.607012,-0.25234,-0.317608
1515651259097,-0.002138,-0.038292,0.062374,0.505411,-0.307427,-0.289351
1515651259107,-0.03194,-0.030429,0.050051,0.393191,-0.352849,-0.271737
1515651259117,-0.046035,-0.023283,0.034934,0.28092,-0.376785,-0.265892
1515651259127,-0.056239,-0.024432,0.014117,0.155844,-0.362131,-0.271781
1515651259137,-0.064191,-0.031748,-0.008736,0.04023,-0.315274,-0.284154
1515651259147,-0.067893,-0.043877,-0.03695,-0.064853,-0.23941,-0.306216
1515651259157,-0.06872,-0.060725,-0.068138,-0.151957,-0.148466,-0.333709
1515651259167,-0.060736,-0.079684,-0.104793,-0.207232,-0.075602,-0.368788
1515651259177,-0.055711,-0.094302,-0.143821,-0.215817,-0.031503,-0.4083
1515651259187,-0.063712,-0.108235,-0.183765,-0.166107,0.006348,-0.449121
1515651259198,-0.075341,-0.124123,-0.217594,-0.077161,0.032511,-0.485825
1515651259208,-0.096626,-0.12292,-0.233249,0.036236,0.021355,-0.543934
1515651259218,-0.118737,-0.11466,-0.234087,0.170858,-0.006751,-0.627729
1515651259228,-0.129242,-0.103165,-0.226993,0.303364,-0.036974,-0.717918
1515651259238,-0.12434,-0.08773,-0.204859,0.395566,-0.04814,-0.786611
1515651259248,-0.106754,-0.071946,-0.181756,0.448525,-0.042384,-0.834877
1515651259258,-0.081496,-0.062854,-0.162048,0.474894,0.008216,-0.868139
1515651259268,-0.06514,-0.054595,-0.151847,0.492735,0.085426,-0.871514
1515651259278,-0.046216,-0.046733,-0.146051,0.517988,0.166875,-0.86105
1515651259288,-0.027819,-0.043736,-0.136895,0.560243,0.227982,-0.843162
1515651259298,-0.020911,-0.041054,-0.128943,0.624874,0.234553,-0.832776
1515651259308,-0.013162,-0.036731,-0.116528,0.715037,0.19513,-0.822438
1515651259318,-0.016279,-0.029538,-0.099679,0.818999,0.144043,-0.828155
1515651259329,-0.018324,-0.017683,-0.077221,0.92193,0.080085,-0.831716
1515651259339,-0.002838,-0.013391,-0.048297,0.987815,-0.000226,-0.800939
1515651259349,0.009851,-0.016777,-0.013467,1.007071,-0.07749,-0.764633
1515651259359,0.004517,-0.009022,0.026157,0.976447,-0.123711,-0.752704
1515651259369,-0.006125,0.009735,0.062119,0.900177,-0.134713,-0.740623
1515651259379,-0.006054,0.022032,0.082997,0.806906,-0.123288,-0.724231
1515651259389,-0.001214,0.02558,0.085106,0.726357,-0.116106,-0.708953
1515651259399,0.002238,0.030335,0.07711,0.669131,-0.11315,-0.691632
1515651259409,0.00678,0.031798,0.072026,0.618261,-0.108074,-0.665804
1515651259419,0.005876,0.032558,0.076813,0.570576,-0.106177,-0.645323
1515651259429,0.001823,0.031104,0.084456,0.514432,-0.112849,-0.630131
1515651259439,0.002976,0.031125,0.092304,0.450889,-0.129138,-0.624502
1515651259449,0.00452,0.028669,0.094192,0.386302,-0.152925,-0.619927
1515651259459,0.005623,0.029253,0.096986,0.311079,-0.159586,-0.618529
1515651259470,0.007254,0.034118,0.102491,0.226275,-0.14593,-0.614981
1515651259480,0.010305,0.035117,0.097504,0.139328,-0.121549,-0.614643
1515651259490,0.009202,0.03794,0.083799,0.062958,-0.089606,-0.620761
1515651259500,0.008515,0.048177,0.069376,0.004558,-0.038324,-0.626977
1515651259510,0.010866,0.055521,0.054035,-0.026254,-0.000965,-0.617286
1515651259520,0.017483,0.065047,0.036635,-0.043249,0.019255,-0.600164
1515651259530,0.019861,0.077463,0.027921,-0.048599,0.043828,-0.589498
1515651259540,0.022488,0.086318,0.024464,-0.048654,0.069461,-0.573518
1515651259550,0.027903,0.091434,0.022144,-0.045523,0.092951,-0.555415
1515651259560,0.033579,0.094416,0.020427,-0.043434,0.108943,-0.538367
1515651259570,0.039434,0.097486,0.020345,-0.040264,0.11424,-0.524511
1515651259580,0.043868,0.100918,0.017513,-0.026469,0.106723,-0.512818
1515651259590,0.048012,0.104255,0.007023,0.005381,0.081063,-0.504382
1515651259601,0.050371,0.118312,-0.005968,0.059485,0.054366,-0.489633
1515651259611,0.046036,0.152099,-0.015878,0.121011,0.026637,-0.478119
1515651259621,0.036967,0.203312,-0.013453,0.174066,0.000909,-0.443098
1515651259631,0.046089,0.254587,0.000661,0.190027,-0.019793,-0.364153
1515651259641,0.061873,0.292986,0.012143,0.186928,-0.043982,-0.242424
1515651259651,0.06891,0.319167,0.020663,0.175378,-0.075822,-0.095035
1515651259661,0.079542,0.317897,0.021485,0.191409,-0.117311,0.070389
1515651259671,0.078516,0.286966,0.014883,0.232911,-0.177994,0.232531
1515651259681,0.045104,0.251362,0.017423,0.281822,-0.241609,0.342347
1515651259691,0.004815,0.208624,0.039019,0.292532,-0.286809,0.389323
1515651259701,-0.027839,0.166558,0.071112,0.233218,-0.301925,0.376789
1515651259711,-0.056535,0.14404,0.103755,0.118654,-0.255864,0.309975
1515651259721,-0.068879,0.13689,0.130944,-0.044772,-0.160534,0.216622
1515651259732,-0.051348,0.132042,0.14045,-0.229423,-0.0503,0.129746
1515651259742,-0.00763,0.124094,0.127603,-0.393914,0.05232,0.078015
1515651259752,0.04562,0.115278,0.095786,-0.493728,0.143109,0.074058
1515651259762,0.086438,0.107214,0.0578,-0.513987,0.200807,0.093286
1515651259772,0.110492,0.099847,0.026564,-0.469507,0.214779,0.111225
1515651259782,0.124626,0.09041,0.008205,-0.391025,0.185032,0.107724
1515651259792,0.134702,0.085141,0.004014,-0.305068,0.128577,0.093552
1515651259802,0.139233,0.086736,0.009335,-0.230742,0.059271,0.070909
1515651259812,0.144579,0.09224,0.023714,-0.189296,0.004808,0.060126
1515651259822,0.146724,0.098939,0.042621,-0.187097,-0.029491,0.064427
1515651259832,0.143242,0.108985,0.056531,-0.210387,-0.038207,0.079481
1515651259842,0.131344,0.119446,0.067284,-0.254933,-0.01912,0.092456
1515651259852,0.114438,0.127032,0.07406,-0.313282,0.010687,0.09587
1515651259863,0.096885,0.129056,0.078961,-0.375872,0.041585,0.092896
1515651259873,0.081658,0.13004,0.076973,-0.432106,0.072524,0.085625
1515651259883,0.076108,0.133859,0.0749,-0.481974,0.101296,0.086868
1515651259893,0.078938,0.134629,0.074161,-0.536041,0.112854,0.099893
1515651259903,0.078624,0.132443,0.072633,-0.583733,0.116915,0.116105
1515651259913,0.074902,0.129408,0.067296,-0.628247,0.122058,0.1323
1515651259923,0.069282,0.126375,0.058593,-0.66643,0.139011,0.147384
1515651259933,0.067777,0.123151,0.049914,-0.69614,0.157103,0.153893
1515651259943,0.074773,0.118846,0.041298,-0.707832,0.176237,0.177399
1515651259953,0.086428,0.112035,0.032531,-0.71101,0.178253,0.200892
1515651259963,0.099209,0.103645,0.022384,-0.692974,0.172758,0.239248
1515651259973,0.109511,0.093671,0.013726,-0.661134,0.155483,0.285031
1515651259983,0.116981,0.078146,0.009414,-0.61868,0.130729,0.332914
1515651259993,0.121346,0.063192,0.009211,-0.567715,0.090996,0.381846
1515651260004,0.123882,0.04245,0.007197,-0.499734,0.022418,0.42434
1515651260014,0.117972,0.02272,0.004102,-0.421065,-0.086793,0.45723
1515651260024,0.107243,0.0079,0.005781,-0.350775,-0.242035,0.477406
1515651260034,0.095665,-0.000251,0.014325,-0.287959,-0.373643,0.480505
1515651260044,0.080316,0.003083,0.020459,-0.262354,-0.44964,0.481555
1515651260054,0.0732,0.015339,0.016642,-0.282382,-0.496847,0.482767
1515651260064,0.091921,0.022621,0.002182,-0.312086,-0.48204,0.503163
1515651260074,0.118129,0.027685,-0.021752,-0.335575,-0.396697,0.56293
1515651260084,0.133032,0.03222,-0.049942,-0.342136,-0.294335,0.657821
1515651260094,0.138125,0.024406,-0.072906,-0.322198,-0.195179,0.766486
1515651260104,0.125137,-0.009384,-0.081161,-0.251399,-0.09477,0.869593
1515651260114,0.085048,-0.038352,-0.08586,-0.148711,-0.043332,0.928864
1515651260124,0.036364,-0.054521,-0.077421,-0.035334,-0.03976,0.925174
1515651260135,-0.006373,-0.07515,-0.044842,0.036731,-0.048903,0.868306
1515651260145,-0.035487,-0.088939,0.00238,0.044149,-0.058129,0.789302
1515651260155,-0.041124,-0.093046,0.046744,-0.022612,-0.065447,0.712744
1515651260165,-0.030479,-0.092641,0.078898,-0.134975,-0.054816,0.661977
1515651260175,-0.011896,-0.086166,0.093539,-0.267522,-0.017627,0.64435
1515651260185,0.006333,-0.081791,0.089805,-0.390549,0.030195,0.649082
1515651260195,0.017339,-0.081882,0.062531,-0.474345,0.068411,0.669672
1515651260205,0.017992,-0.080506,0.028659,-0.503013,0.096052,0.695379
1515651260215,0.006767,-0.082873,0.000528,-0.490299,0.099204,0.715601
1515651260225,-0.007315,-0.087212,-0.015074,-0.468055,0.104591,0.72297
1515651260235,-0.020272,-0.088023,-0.015781,-0.453227,0.108884,0.730373
1515651260245,-0.03007,-0.086358,-0.013458,-0.445819,0.113159,0.736742
1515651260255,-0.039632,-0.093044,-0.016456,-0.430992,0.117463,0.742011
1515651260266,-0.05431,-0.099858,-0.021303,-0.418265,0.113205,0.744096
1515651260276,-0.069909,-0.104255,-0.024338,-0.414045,0.12075,0.737664
1515651260286,-0.085557,-0.104408,-0.023569,-0.42681,0.142161,0.733421
1515651260296,-0.101612,-0.098587,-0.023138,-0.447037,0.183884,0.733455
1515651260306,-0.112953,-0.092975,-0.029993,-0.45985,0.227752,0.737725
1515651260316,-0.127486,-0.093989,-0.042622,-0.456739,0.257787,0.732337
1515651260326,-0.142734,-0.10172,-0.049737,-0.444112,0.297461,0.733301
1515651260336,-0.15645,-0.10515,-0.047867,-0.432538,0.332911,0.721466
1515651260346,-0.176751,-0.109128,-0.048654,-0.418806,0.349145,0.69684
1515651260356,-0.199712,-0.114419,-0.049942,-0.393375,0.344126,0.644436
1515651260366,-0.22784,-0.116292,-0.046176,-0.361601,0.343556,0.563177
1515651260376,-0.251444,-0.111826,-0.036075,-0.343657,0.364472,0.461672
1515651260386,-0.264987,-0.107237,-0.018798,-0.349065,0.399391,0.331429
1515651260397,-0.275241,-0.078944,0.00251,-0.390483,0.426679,0.20562
1515651260407,-0.273227,-0.022655,0.022067,-0.45316,0.486947,0.114015
1515651260417,-0.241823,0.015471,0.042644,-0.51691,0.559743,0.087512
1515651260427,-0.208883,0.044678,0.048289,-0.565687,0.576616,0.112248
1515651260437,-0.192007,0.070565,0.046807,-0.582521,0.528096,0.163616
1515651260447,-0.185531,0.071429,0.048435,-0.566378,0.422903,0.212777
1515651260457,-0.190425,0.062601,0.056444,-0.536367,0.273931,0.240587
1515651260467,-0.201031,0.049473,0.068041,-0.507435,0.128383,0.225704
1515651260477,-0.195799,0.015152,0.083345,-0.505099,0.024789,0.160713
1515651260487,-0.17922,-0.02607,0.105151,-0.581336,-0.014513,0.046879
1515651260497,-0.16868,-0.050729,0.131305,-0.744756,0.072513,-0.099832
1515651260507,-0.152416,-0.059167,0.151059,-0.972019,0.276128,-0.246416
1515651260517,-0.125351,-0.050195,0.154692,-1.22165,0.534199,-0.369491
1515651260527,-0.094296,-0.033169,0.140822,-1.432099,0.808215,-0.443651
1515651260538,-0.062064,-0.014843,0.118335,-1.594761,1.042514,-0.474204
1515651260548,-0.034118,0.002555,0.095244,-1.705337,1.209304,-0.470744
1515651260558,-0.014496,0.010926,0.071437,-1.750018,1.287365,-0.467449
1515651260568,-0.005858,0.007395,0.043056,-1.72661,1.243562,-0.478167
1515651260578,-0.000015,-0.00189,0.016062,-1.65852,1.119624,-0.506054
1515651260588,0.006149,-0.015577,-0.005306,-1.570261,0.979713,-0.541481
1515651260598,0.010631,-0.029246,-0.022302,-1.469355,0.86986,-0.581267
1515651260608,0.015451,-0.042726,-0.031085,-1.383454,0.833915,-0.626415
1515651260618,0.027433,-0.054217,-0.02993,-1.324184,0.862126,-0.661927
1515651260628,0.047999,-0.06461,-0.023424,-1.287212,0.911644,-0.686696
1515651260638,0.070751,-0.071778,-0.019382,-1.252351,0.959956,-0.685838
1515651260648,0.089539,-0.069409,-0.019748,-1.210027,0.99107,-0.668983
1515651260658,0.104482,-0.062746,-0.025136,-1.142187,0.984729,-0.645782
1515651260669,0.113353,-0.055154,-0.03593,-1.030751,0.913074,-0.60454
1515651260679,0.11449,-0.04957,-0.050405,-0.900115,0.787795,-0.540897
1515651260689,0.096132,-0.041,-0.053766,-0.75778,0.643271,-0.478347
1515651260699,0.060752,-0.036936,-0.054773,-0.62393,0.500923,-0.427506
1515651260709,0.014158,-0.035664,-0.058396,-0.486948,0.375924,-0.416193
1515651260719,-0.037937,-0.041392,-0.059777,-0.351109,0.28429,-0.435871
1515651260729,-0.082869,-0.052517,-0.052157,-0.232266,0.207736,-0.482179
1515651260739,-0.114833,-0.05983,-0.030334,-0.160086,0.147177,-0.541117
1515651260749,-0.133978,-0.063156,0.002921,-0.133592,0.140056,-0.600996
1515651260759,-0.144893,-0.066059,0.037173,-0.155895,0.156342,-0.657493
1515651260769,-0.149224,-0.068289,0.063725,-0.196234,0.183223,-0.701117
1515651260779,-0.153964,-0.071568,0.082104,-0.240775,0.194021,-0.744703
1515651260789,-0.162973,-0.072996,0.095766,-0.287387,0.184436,-0.783988
1515651260800,-0.17065,-0.067235,0.113187,-0.335076,0.182325,-0.819006
1515651260810,-0.177944,-0.060023,0.133334,-0.398662,0.180166,-0.853954
1515651260820,-0.191707,-0.049867,0.147246,-0.480277,0.185453,-0.888836
1515651260830,-0.204707,-0.047485,0.155899,-0.568319,0.221791,-0.923732
1515651260840,-0.210877,-0.060247,0.161941,-0.67439,0.262445,-0.975633
1515651260850,-0.218906,-0.076347,0.163775,-0.787893,0.305347,-1.053116
1515651260860,-0.225721,-0.087647,0.161314,-0.887666,0.368695,-1.140295
1515651260870,-0.225833,-0.087432,0.153138,-0.962041,0.44713,-1.229736
1515651260880,-0.214407,-0.080847,0.143592,-1.01522,0.526615,-1.302191
1515651260890,-0.188172,-0.072587,0.141684,-1.06516,0.581372,-1.355416
1515651260900,-0.15517,-0.061234,0.142578,-1.095963,0.610372,-1.38841
1515651260910,-0.12392,-0.050883,0.136069,-1.099106,0.594341,-1.397988
1515651260920,-0.099193,-0.042581,0.127951,-1.082027,0.540737,-1.380916
1515651260931,-0.085289,-0.029344,0.125242,-1.052179,0.462567,-1.371337
1515651260941,-0.087354,-0.006638,0.116004,-1.009575,0.364186,-1.383137
1515651260951,-0.078926,-0.00114,0.119689,-0.976556,0.290225,-1.356497
1515651260961,-0.072678,-0.000634,0.13014,-0.997558,0.207536,-1.330686
1515651260971,-0.069504,0.0006,0.141733,-1.068448,0.161189,-1.31752
1515651260981,-0.074055,-0.002494,0.149744,-1.16915,0.175885,-1.317108
1515651260991,-0.087822,-0.000626,0.133945,-1.247685,0.22513,-1.35633
1515651261001,-0.095497,-0.00257,0.107328,-1.278565,0.286373,-1.409644
1515651261011,-0.08859,-0.005698,0.08431,-1.269162,0.341266,-1.454584
1515651261021,-0.067167,-0.002887,0.072557,-1.237444,0.371478,-1.47824
1515651261031,-0.046122,0.000056,0.069735,-1.197165,0.364141,-1.486937
1515651261041,-0.028406,0.001373,0.06884,-1.137711,0.312936,-1.495666
1515651261051,-0.010198,0.008646,0.066642,-1.077127,0.232754,-1.493693
1515651261061,0.011031,0.015725,0.070287,-1.02502,0.152503,-1.483141
1515651261072,0.016177,0.024746,0.079849,-0.98567,0.090422,-1.47149
1515651261082,0.028331,0.034299,0.090908,-0.96124,0.066829,-1.452352
1515651261092,0.046188,0.039655,0.099175,-0.950675,0.082782,-1.422526
1515651261102,0.053486,0.043303,0.105675,-0.954955,0.105098,-1.388379
1515651261112,0.059726,0.048612,0.111285,-0.964563,0.140309,-1.364904
1515651261122,0.060758,0.055953,0.11757,-0.965693,0.174462,-1.339324
1515651261132,0.068106,0.063161,0.124074,-0.958298,0.188237,-1.304149
1515651261142,0.079087,0.074721,0.127941,-0.954033,0.181587,-1.257194
1515651261152,0.085414,0.086351,0.133961,-0.945496,0.160979,-1.201701
1515651261162,0.092237,0.098405,0.142771,-0.951752,0.121053,-1.148255
1515651261172,0.091219,0.104728,0.147516,-0.963282,0.069345,-1.09904
1515651261182,0.091443,0.10549,0.144941,-0.958925,0.021972,-1.049899
1515651261192,0.093496,0.108198,0.142979,-0.965158,-0.027635,-0.988968
1515651261203,0.095073,0.104533,0.140171,-0.967161,-0.073988,-0.933397
1515651261213,0.091182,0.105876,0.135618,-0.967067,-0.110655,-0.88532
1515651261223,0.086554,0.112247,0.132115,-0.962752,-0.139793,-0.840471
1515651261233,0.079713,0.114145,0.119467,-0.942539,-0.169998,-0.787149
1515651261243,0.074107,0.117072,0.105635,-0.903284,-0.187198,-0.752071
1515651261253,0.071407,0.121067,0.101831,-0.869372,-0.186158,-0.72553
1515651261263,0.06498,0.132681,0.10389,-0.853468,-0.187309,-0.699979
1515651261273,0.05089,0.16128,0.104901,-0.842858,-0.189553,-0.673339
1515651261283,0.038991,0.211309,0.112801,-0.854492,-0.193106,-0.612444
1515651261293,0.039411,0.25641,0.126792,-0.89361,-0.222641,-0.514042
1515651261303,0.048097,0.281687,0.128947,-0.940088,-0.274864,-0.382489
1515651261313,0.053084,0.294443,0.120568,-0.980177,-0.337876,-0.23174
1515651261323,0.055559,0.292051,0.107398,-1.022413,-0.389126,-0.077792
1515651261334,0.052108,0.271551,0.094999,-1.07206,-0.446721,0.054853
1515651261344,0.039419,0.248543,0.087348,-1.145126,-0.460257,0.146978
1515651261354,0.019327,0.228603,0.081407,-1.236336,-0.421103,0.190013
1515651261364,0.005831,0.206635,0.066067,-1.318072,-0.357114,0.199889
1515651261374,0.006086,0.184187,0.043987,-1.364852,-0.28861,0.185056
1515651261384,0.013683,0.168633,0.012434,-1.361827,-0.223097,0.155074
1515651261394,0.035563,0.154807,-0.017714,-1.311064,-0.182082,0.124924
1515651261404,0.063844,0.144938,-0.039603,-1.235871,-0.163589,0.113906
1515651261414,0.091912,0.146467,-0.048074,-1.16383,-0.153803,0.128528
1515651261424,0.113963,0.156689,-0.042648,-1.091804,-0.136587,0.157018
1515651261434,0.125854,0.168648,-0.041279,-1.016542,-0.144031,0.190864
1515651261444,0.130539,0.176207,-0.046689,-0.929557,-0.180414,0.234302
1515651261454,0.134968,0.184,-0.048526,-0.821367,-0.219005,0.303268
1515651261465,0.130864,0.188584,-0.044188,-0.695126,-0.272593,0.382851
1515651261475,0.117439,0.184939,-0.034666,-0.585803,-0.342293,0.460389
1515651261485,0.091467,0.176511,-0.016558,-0.499802,-0.41088,0.515612
1515651261495,0.056807,0.168405,0.01138,-0.45836,-0.460162,0.540048
1515651261505,0.032519,0.157833,0.037945,-0.468875,-0.495598,0.549743
1515651261515,0.014947,0.144456,0.062974,-0.529284,-0.492533,0.543591
1515651261525,0.000809,0.135292,0.081538,-0.631106,-0.452068,0.532234
1515651261535,-0.005142,0.128442,0.088717,-0.758424,-0.38383,0.522019
1515651261545,-0.005901,0.115764,0.08495,-0.891085,-0.294206,0.517136
1515651261555,-0.003305,0.102846,0.07756,-1.032257,-0.189597,0.510134
1515651261565,-0.002012,0.087439,0.066231,-1.166034,-0.076347,0.493485
1515651261575,0.000841,0.070204,0.045917,-1.263749,0.021995,0.479904
1515651261585,0.001667,0.052395,0.016856,-1.311581,0.086193,0.468287
1515651261595,-0.007355,0.03083,-0.010671,-1.325433,0.119424,0.456562
1515651261606,-0.024742,0.011779,-0.029092,-1.321234,0.132512,0.412765
1515651261616,-0.041011,-0.000079,-0.035965,-1.315974,0.143535,0.354022
1515651261626,-0.043175,-0.010974,-0.04387,-1.316041,0.167382,0.298488
1515651261636,-0.03736,-0.020203,-0.05019,-1.314045,0.214843,0.235448
1515651261646,-0.022913,-0.024233,-0.053379,-1.311018,0.277249,0.184122
1515651261656,0.002502,-0.023084,-0.055692,-1.303748,0.340654,0.149853
1515651261666,0.026681,-0.015524,-0.057825,-1.276321,0.394381,0.134725
1515651261676,0.046065,-0.005341,-0.062686,-1.220251,0.437375,0.140835
1515651261686,0.064456,0.00059,-0.061507,-1.145024,0.443929,0.160786
1515651261696,0.078627,0.000656,-0.050843,-1.076092,0.422575,0.187204
1515651261706,0.087456,-0.002776,-0.035011,-1.020865,0.371155,0.219055
1515651261716,0.084689,-0.002506,-0.013066,-0.989977,0.303601,0.248896
1515651261726,0.076318,-0.00477,0.006223,-0.970713,0.220015,0.263862
1515651261737,0.066161,-0.012199,0.017853,-0.967347,0.13853,0.277824
1515651261747,0.063924,-0.020165,0.023185,-0.978864,0.078396,0.298229
1515651261757,0.058656,-0.025035,0.021774,-0.991467,0.030028,0.321827
1515651261767,0.051219,-0.033491,0.007465,-0.995613,-0.009728,0.342175
1515651261777,0.043005,-0.043907,-0.012106,-0.983939,-0.015162,0.364548
1515651261787,0.033043,-0.052135,-0.027856,-0.972344,0.013737,0.377271
1515651261797,0.029378,-0.060772,-0.032577,-0.96396,0.057578,0.399596
1515651261807,0.028787,-0.070921,-0.034271,-0.959785,0.088549,0.421954
1515651261817,0.025017,-0.079143,-0.03413,-0.94814,0.097028,0.447509
1515651261827,0.019445,-0.087894,-0.031289,-0.927939,0.068108,0.458133
1515651261837,0.010882,-0.098066,-0.031289,-0.905572,0.017788,0.464506
1515651261847,0.00161,-0.105777,-0.034276,-0.880035,-0.028232,0.469791
1515651261857,-0.005681,-0.111447,-0.038352,-0.858805,-0.043237,0.483596
1515651261868,-0.011424,-0.116635,-0.039463,-0.846113,-0.030454,0.505941
1515651261878,-0.014848,-0.120281,-0.039204,-0.842988,-0.002732,0.534711
1515651261888,-0.026377,-0.126662,-0.045899,-0.835618,0.020771,0.552796
1515651261898,-0.034486,-0.135634,-0.056829,-0.825055,0.036809,0.56554
1515651261908,-0.033491,-0.143125,-0.068012,-0.804938,0.046427,0.582521
1515651261918,-0.034487,-0.155251,-0.082145,-0.776367,0.065718,0.598387
1515651261928,-0.035709,-0.168822,-0.096234,-0.7351,0.093651,0.607782
1515651261938,-0.034773,-0.176881,-0.108665,-0.677901,0.106623,0.619259
1515651261948,-0.034134,-0.182114,-0.123583,-0.602646,0.100347,0.633889
1515651261958,-0.03481,-0.183625,-0.133979,-0.509375,0.093048,0.649512
1515651261968,-0.034749,-0.185293,-0.13594,-0.415,0.066468,0.665153
1515651261978,-0.044142,-0.180534,-0.138113,-0.322729,0.033454,0.680809
1515651261988,-0.058986,-0.173354,-0.135462,-0.223059,0.009011,0.700694
1515651261999,-0.074572,-0.177915,-0.132739,-0.13823,-0.016431,0.697163
1515651262009,-0.10157,-0.175797,-0.120579,-0.078882,-0.023544,0.655291
1515651262019,-0.147364,-0.151396,-0.098866,-0.055604,-0.013527,0.594335
1515651262029,-0.180556,-0.108421,-0.077909,-0.03872,0.012498,0.541929
1515651262039,-0.18545,-0.07908,-0.068011,-0.017507,-0.000189,0.520512
1515651262049,-0.188592,-0.049521,-0.06756,0.005918,-0.049429,0.52581
1515651262059,-0.18982,-0.022142,-0.064011,0.036794,-0.10958,0.574854
1515651262069,-0.182188,-0.019657,-0.064348,0.063454,-0.177328,0.641003
1515651262079,-0.194047,-0.027968,-0.072684,0.091175,-0.248207,0.691142
1515651262089,-0.227325,-0.035288,-0.074338,0.098663,-0.278237,0.701822
1515651262099,-0.255159,-0.05393,-0.062114,0.074242,-0.259931,0.668813
1515651262109,-0.275812,-0.080197,-0.045916,0.016904,-0.217888,0.582547
1515651262119,-0.294535,-0.10159,-0.034716,-0.063798,-0.158496,0.440854
1515651262129,-0.293379,-0.123339,-0.027373,-0.154065,-0.088334,0.28211
1515651262140,-0.275891,-0.138085,-0.025324,-0.244338,-0.015005,0.132969
1515651262150,-0.248421,-0.141416,-0.0282,-0.324014,0.061436,0.010464
1515651262160,-0.213872,-0.144752,-0.035621,-0.376112,0.130291,-0.077995
1515651262170,-0.179075,-0.148928,-0.045052,-0.406961,0.175548,-0.148368
1515651262180,-0.156222,-0.146524,-0.049719,-0.420842,0.215506,-0.219876
1515651262190,-0.141367,-0.141406,-0.043677,-0.430508,0.265139,-0.295681
1515651262200,-0.125841,-0.13334,-0.029152,-0.455018,0.316885,-0.374624
1515651262210,-0.107538,-0.118395,-0.013193,-0.496486,0.371774,-0.449233
1515651262220,-0.08575,-0.103614,-0.003943,-0.536868,0.416961,-0.511028
1515651262230,-0.058892,-0.089831,0.004702,-0.584669,0.463126,-0.558914
1515651262240,-0.032335,-0.07491,0.009296,-0.629236,0.48669,-0.584368
1515651262250,-0.0053,-0.064089,0.0003,-0.651477,0.480253,-0.596007
1515651262260,0.012609,-0.057786,-0.019078,-0.635527,0.455643,-0.592841
1515651262271,0.028427,-0.050916,-0.041238,-0.589865,0.413937,-0.581242
1515651262281,0.040349,-0.046392,-0.060186,-0.519829,0.373346,-0.563348
1515651262291,0.04543,-0.046152,-0.075204,-0.441313,0.330636,-0.545484
1515651262301,0.044703,-0.050099,-0.084351,-0.364922,0.290111,-0.537221
1515651262311,0.041184,-0.052926,-0.088318,-0.292798,0.26034,-0.539627
1515651262321,0.045837,-0.058634,-0.093163,-0.225978,0.232707,-0.544147
1515651262331,0.045661,-0.067178,-0.097331,-0.163415,0.213631,-0.548659
1515651262341,0.033813,-0.076872,-0.09913,-0.109386,0.219178,-0.554232
1515651262351,0.018645,-0.08625,-0.096416,-0.07023,0.240804,-0.570437
1515651262361,-0.002583,-0.089538,-0.092886,-0.031082,0.263591,-0.604788
1515651262371,-0.017804,-0.090506,-0.091662,0.003878,0.263883,-0.642296
1515651262381,-0.019871,-0.083989,-0.094574,0.05374,0.235249,-0.671292
1515651262391,-0.015028,-0.071713,-0.097443,0.105769,0.187231,-0.678926
1515651262402,-0.008139,-0.068327,-0.098751,0.155704,0.132629,-0.656658
1515651262412,-0.003392,-0.065843,-0.099507,0.201363,0.094058,-0.629053
1515651262422,-0.003497,-0.058998,-0.097044,0.237462,0.065127,-0.606756
1515651262432,-0.01328,-0.056438,-0.093235,0.270345,0.05229,-0.59087
1515651262442,-0.026514,-0.055219,-0.088926,0.295777,0.052339,-0.585638
1515651262452,-0.031542,-0.055454,-0.078212,0.310585,0.064185,-0.588918
1515651262462,-0.033834,-0.055219,-0.063422,0.296786,0.073823,-0.596344
1515651262472,-0.030647,-0.061642,-0.050905,0.27343,0.092009,-0.604806
1515651262482,-0.025903,-0.070321,-0.045136,0.234189,0.106912,-0.608929
1515651262492,-0.029551,-0.072835,-0.042654,0.182209,0.13143,-0.615143
1515651262502,-0.034085,-0.07283,-0.040905,0.134406,0.182771,-0.626745
1515651262512,-0.032725,-0.075694,-0.046841,0.108873,0.227709,-0.629894
1515651262522,-0.026475,-0.08116,-0.064323,0.123641,0.256669,-0.627854
1515651262533,-0.023071,-0.084008,-0.079452,0.178721,0.267518,-0.621698
1515651262543,-0.022073,-0.075615,-0.084662,0.249743,0.259119,-0.613455
1515651262553,-0.015848,-0.066871,-0.080493,0.336712,0.226125,-0.605246
1515651262563,-0.015529,-0.059592,-0.077641,0.424769,0.180288,-0.599159
1515651262573,-0.017434,-0.053941,-0.069579,0.504384,0.11939,-0.585546
1515651262583,-0.014089,-0.052266,-0.055716,0.555381,0.060584,-0.579285
1515651262593,-0.013772,-0.053859,-0.038703,0.59149,0.026339,-0.56552
1515651262603,-0.013118,-0.05501,-0.025473,0.610617,0.005972,-0.551705
1515651262613,-0.011827,-0.056017,-0.014152,0.609576,-0.000544,-0.534614
1515651262623,-0.01566,-0.058736,-0.004807,0.598946,0.013324,-0.529246
1515651262633,-0.022662,-0.057613,0.004143,0.591494,0.028333,-0.535637
1515651262643,-0.024674,-0.056225,0.002609,0.593593,0.034842,-0.550594
1515651262653,-0.02096,-0.060475,-0.004376,0.626427,0.041401,-0.557147
1515651262663,-0.015205,-0.058053,-0.001005,0.649735,0.045726,-0.550853
1515651262674,-0.002856,-0.050624,0.010219,0.662468,0.039283,-0.540225
1515651262684,0.006487,-0.043555,0.019466,0.66991,0.029621,-0.531707
1515651262694,0.012605,-0.034645,0.023669,0.690147,-0.015376,-0.519996
1515651262704,0.017132,-0.027222,0.017668,0.728431,-0.075318,-0.50834
1515651262714,0.020038,-0.024124,0.014657,0.776256,-0.136291,-0.498862
1515651262724,0.023774,-0.018317,0.021336,0.798584,-0.168413,-0.489312
1515651262734,0.028018,-0.011318,0.04093,0.784808,-0.167431,-0.479647
1515651262744,0.031885,-0.004162,0.062531,0.726467,-0.13877,-0.46129
1515651262754,0.034512,0.00576,0.077188,0.642647,-0.090858,-0.451385
1515651262764,0.046258,0.01271,0.085593,0.545021,-0.029113,-0.430762
1515651262774,0.057636,0.020515,0.086654,0.44529,0.028287,-0.399454
1515651262784,0.064301,0.028724,0.07919,0.37312,0.08253,-0.362924
1515651262794,0.069112,0.031446,0.065551,0.333865,0.107912,-0.320092
1515651262805,0.069324,0.033888,0.054817,0.314808,0.104421,-0.276242
1515651262815,0.064714,0.037666,0.042091,0.320168,0.08068,-0.238876
1515651262825,0.059072,0.044363,0.034439,0.353104,0.046346,-0.209089
1515651262835,0.060018,0.046791,0.030869,0.390282,0.008837,-0.18465
1515651262845,0.067449,0.04359,0.032091,0.4285,-0.021138,-0.166628
1515651262855,0.067487,0.046754,0.034932,0.455044,-0.043589,-0.160309
1515651262865,0.066174,0.062365,0.044618,0.473047,-0.037111,-0.15933
1515651262875,0.065235,0.093585,0.059515,0.47197,-0.030627,-0.171075
1515651262885,0.064586,0.154931,0.088769,0.429586,-0.03396,-0.173019
1515651262895,0.070207,0.235554,0.127764,0.34697,-0.04624,-0.123551
1515651262905,0.077749,0.304924,0.150592,0.238993,-0.084527,-0.030184
1515651262915,0.089124,0.339931,0.15128,0.126881,-0.162804,0.130501
1515651262925,0.105618,0.346027,0.14211,0.004227,-0.263741,0.316879
1515651262936,0.114339,0.320456,0.125544,-0.121627,-0.356058,0.491516
1515651262946,0.098313,0.26181,0.092227,-0.207303,-0.411618,0.624305
1515651262956,0.039411,0.21789,0.047283,-0.21895,-0.407762,0.703337
1515651262966,-0.029714,0.198793,0.013566,-0.206315,-0.370289,0.716047
1515651262976,-0.073582,0.171796,0.009385,-0.192701,-0.302547,0.675343
1515651262986,-0.093463,0.155835,0.02237,-0.206654,-0.228369,0.616599
1515651262996,-0.087779,0.149475,0.039731,-0.233282,-0.173537,0.562208
1515651263006,-0.057757,0.130657,0.048698,-0.260899,-0.14877,0.520666
1515651263016,-0.021895,0.110951,0.046783,-0.279977,-0.149766,0.494064
1515651263026,0.010357,0.09093,0.041224,-0.287422,-0.141133,0.477013
1515651263036,0.037817,0.066301,0.030912,-0.281121,-0.118492,0.452408
1515651263046,0.054102,0.043039,0.016969,-0.255773,-0.086013,0.399956
1515651263056,0.062707,0.030626,0.005069,-0.210323,-0.042615,0.318586
1515651263067,0.071638,0.036478,0.007661,-0.165922,-0.004507,0.223347
1515651263077,0.081368,0.059433,0.016627,-0.121493,0.020711,0.134532
1515651263087,0.100919,0.094844,0.031997,-0.088636,0.01145,0.077833
1515651263097,0.125552,0.135787,0.049564,-0.084322,-0.023824,0.063983
1515651263107,0.144831,0.173603,0.066701,-0.102219,-0.073273,0.086533
1515651263117,0.155137,0.208521,0.072133,-0.140231,-0.12829,0.139067
1515651263127,0.153131,0.233887,0.067243,-0.167682,-0.168352,0.206487
1515651263137,0.142867,0.247208,0.062023,-0.19728,-0.191388,0.296303
1515651263147,0.121903,0.255293,0.062484,-0.231149,-0.198408,0.394653
1515651263157,0.085625,0.256251,0.070065,-0.280966,-0.185014,0.471701
1515651263167,0.045187,0.246532,0.085205,-0.367874,-0.175756,0.49661
1515651263177,0.008721,0.230223,0.099937,-0.481314,-0.153513,0.479988
1515651263187,-0.014851,0.216949,0.106935,-0.620252,-0.103395,0.444227
1515651263197,-0.02246,0.202767,0.110489,-0.780436,-0.031829,0.391451
1515651263208,-0.008049,0.18127,0.104486,-0.947015,0.056808,0.349356
1515651263218,0.017944,0.167117,0.088008,-1.08817,0.152877,0.335962
1515651263228,0.044578,0.162461,0.057989,-1.172055,0.229717,0.345831
1515651263238,0.06746,0.157008,0.022035,-1.188022,0.264892,0.37254
1515651263248,0.08661,0.153252,-0.013802,-1.139268,0.264857,0.408624
1515651263258,0.106104,0.146139,-0.041808,-1.034255,0.22315,0.45626
1515651263268,0.12647,0.132016,-0.06061,-0.887833,0.146136,0.518708
1515651263278,0.146144,0.115337,-0.068598,-0.727565,0.039123,0.589673
1515651263288,0.15299,0.098586,-0.061862,-0.571548,-0.061533,0.67239
1515651263298,0.154877,0.085664,-0.045329,-0.448411,-0.148361,0.75523
1515651263308,0.145936,0.078646,-0.023843,-0.362511,-0.16889,0.841348
1515651263318,0.130708,0.074274,0.003129,-0.317063,-0.102939,0.963822
1515651263328,0.131417,0.071058,0.015112,-0.287604,0.008886,1.11619
1515651263339,0.127363,0.058963,0.029741,-0.288982,0.173888,1.328399
1515651263349,0.127946,0.036334,0.044527,-0.349722,0.339078,1.467215
1515651263359,0.109324,0.008271,0.060876,-0.449428,0.384736,1.489998
1515651263369,0.070226,-0.026932,0.063409,-0.5435,0.273289,1.438234
1515651263379,0.0206,-0.049361,0.046914,-0.591838,0.082812,1.362894
1515651263389,-0.035855,-0.055825,0.026708,-0.584137,-0.052822,1.280844
1515651263399,-0.080587,-0.064661,0.005483,-0.558474,-0.165865,1.191215
1515651263409,-0.108813,-0.083484,-0.007488,-0.543435,-0.267129,1.096281
1515651263419,-0.128554,-0.108784,-0.015201,-0.542282,-0.320168,0.990671
1515651263429,-0.150239,-0.119635,-0.018923,-0.552888,-0.323035,0.914931
1515651263439,-0.164821,-0.119207,-0.025504,-0.577402,-0.258867,0.923495
1515651263449,-0.165571,-0.116781,-0.031279,-0.624373,-0.104696,0.917096
1515651263459,-0.158473,-0.134009,-0.053678,-0.642861,0.103275,0.881691
1515651263470,-0.161867,-0.144634,-0.069025,-0.661325,0.299466,0.845236
1515651263480,-0.164055,-0.13063,-0.087569,-0.634212,0.489462,0.789378
1515651263490,-0.16371,-0.131287,-0.0983,-0.603747,0.606421,0.772024
1515651263500,-0.109692,-0.103528,-0.082504,-0.604798,0.609307,0.837135
1515651263510,-0.19814,-0.147219,-0.114831,-0.474389,0.567399,0.725621
1515651263520,-0.185957,-0.200537,-0.146059,-0.352322,0.479737,0.760434
1515651263530,-0.203033,-0.131791,-0.147733,-0.168929,0.439943,0.686056
1515651263540,-0.207562,-0.137446,-0.172601,-0.038598,0.450752,0.74526
1515651263550,-0.14778,-0.135514,-0.17581,0.081035,0.499411,0.727606
1515651263560,-0.152569,-0.133365,-0.164395,0.12959,0.583185,0.715553
1515651263570,-0.146951,-0.14248,-0.133984,0.129417,0.656204,0.682376
1515651263580,-0.141338,-0.114752,-0.097831,0.078292,0.776916,0.723004
1515651263590,-0.106362,-0.09223,-0.097665,0.043493,0.70496,0.737109
1515651263600,-0.187094,-0.195222,-0.075438,0.059775,0.511001,0.539815
1515651263611,-0.176622,-0.150135,-0.064402,-0.006635,0.337903,0.405833
1515651263621,-0.166394,-0.11247,-0.051157,-0.057338,0.258787,0.342105
1515651263631,-0.202787,-0.100425,-0.060218,-0.113289,0.154122,0.242139
1515651263641,-0.253675,-0.037005,-0.075646,-0.169259,0.056952,0.143232
1515651263651,-0.238193,-0.009467,-0.08296,-0.218033,0.06658,0.116746
1515651263661,-0.213766,-0.006052,-0.096483,-0.265743,0.079213,0.132944
1515651263671,-0.203926,-0.003974,-0.111534,-0.28165,0.088654,0.163952
1515651263681,-0.196222,-0.025483,-0.130241,-0.267844,0.076825,0.180986
1515651263691,-0.194356,-0.06578,-0.141855,-0.247634,0.040565,0.159597
1515651263701,-0.198937,-0.087504,-0.143279,-0.244366,-0.004184,0.111606
1515651263711,-0.195028,-0.099633,-0.135998,-0.262418,0.006709,0.064707
1515651263721,-0.195527,-0.111694,-0.144273,-0.284775,0.046597,0.001777
1515651263731,-0.202065,-0.128217,-0.162727,-0.296468,0.055534,-0.078243
1515651263742,-0.199937,-0.135812,-0.167079,-0.27736,0.03137,-0.162618
1515651263752,-0.202093,-0.131346,-0.192532,-0.23491,-0.00558,-0.247077
1515651263762,-0.186508,-0.139179,-0.206167,-0.169163,-0.033968,-0.315635
1515651263772,-0.181414,-0.134342,-0.207034,-0.105462,-0.094608,-0.363856
1515651263782,-0.171645,-0.136272,-0.201808,-0.052316,-0.170368,-0.393875
1515651263792,-0.140915,-0.164881,-0.191816,0.00607,-0.2214,-0.437824
1515651263802,-0.114565,-0.196608,-0.175437,0.075921,-0.189767,-0.508609
1515651263812,-0.078198,-0.223624,-0.15934,0.136019,-0.061663,-0.594421
1515651263822,-0.035417,-0.24238,-0.139528,0.154732,0.090948,-0.677949
1515651263832,0.010997,-0.242727,-0.115524,0.1512,0.239167,-0.7539
1515651263842,0.062035,-0.2384,-0.094465,0.14874,0.385179,-0.815981
1515651263852,0.103012,-0.222502,-0.078286,0.142134,0.49353,-0.848114
1515651263862,0.126072,-0.189689,-0.074545,0.144141,0.543887,-0.847118
1515651263873,0.142843,-0.155287,-0.077724,0.167415,0.563108,-0.820554
1515651263883,0.146149,-0.122354,-0.084424,0.223692,0.515961,-0.785511
1515651263893,0.130133,-0.094103,-0.113017,0.315119,0.390617,-0.732377
1515651263903,0.117798,-0.072997,-0.142557,0.436282,0.237416,-0.661187
1515651263913,0.103026,-0.050345,-0.160216,0.561614,0.115314,-0.593256
1515651263923,0.091355,-0.03527,-0.161934,0.682568,0.052248,-0.54993
1515651263933,0.073404,-0.016941,-0.151202,0.770581,0.026719,-0.534261
1515651263943,0.055541,0.005627,-0.135257,0.807703,0.015941,-0.499182
1515651263953,0.058144,0.019973,-0.110123,0.797131,0.012376,-0.435092
1515651263963,0.057966,0.023992,-0.096458,0.767529,-0.010591,-0.359152
1515651263973,0.048085,0.015807,-0.101759,0.748588,-0.062443,-0.285355
1515651263983,0.033223,0.002317,-0.121349,0.743423,-0.115271,-0.222291
1515651263993,0.007344,-0.012811,-0.148102,0.75941,-0.15182,-0.188161
1515651264004,-0.025957,-0.029786,-0.17144,0.792238,-0.142073,-0.189381
1515651264014,-0.048764,-0.040641,-0.176966,0.823951,-0.109745,-0.207701
1515651264024,-0.052655,-0.04789,-0.189722,0.848285,-0.094571,-0.228105
1515651264034,-0.030291,-0.066515,-0.176495,0.851406,-0.071935,-0.253761
1515651264044,-0.017674,-0.07707,-0.164528,0.861972,-0.062074,-0.291177
1515651264054,-0.002487,-0.076638,-0.14454,0.871468,-0.045868,-0.312586
1515651264064,0.023901,-0.068383,-0.116618,0.87998,-0.061897,-0.315805
1515651264074,0.021956,-0.05625,-0.110079,0.888641,-0.145343,-0.334952
1515651264084,0.014427,-0.057283,-0.12029,0.920662,-0.251177,-0.362709
1515651264094,0.018249,-0.062602,-0.136611,0.965409,-0.362313,-0.393714
1515651264104,0.029613,-0.068288,-0.15046,1.01429,-0.427324,-0.433334
1515651264114,0.023276,-0.069772,-0.149275,1.02147,-0.326378,-0.476184
1515651264124,0.018899,-0.039807,-0.104012,0.888143,0.056972,-0.514521
1515651264134,0.003773,0.003778,-0.090336,0.777581,0.215226,-0.518515
1515651264145,-0.004249,-0.009211,-0.05696,0.736031,0.311654,-0.544076
1515651264155,0.009157,-0.082132,-0.036261,0.713782,0.300325,-0.648577
1515651264165,0.059087,-0.015892,-0.039265,0.591917,0.308198,-0.581888
1515651264175,0.118808,0.041274,-0.020504,0.466902,0.307299,-0.476749
1515651264185,0.080441,-0.019974,-0.003253,0.418013,0.368365,-0.505436
1515651264195,0.04848,-0.058256,-0.03418,0.508113,0.350657,-0.552762
1515651264205,0.080213,-0.080108,-0.107221,0.69708,0.196941,-0.552308
1515651264215,0.090682,-0.053349,-0.13639,0.909356,0.046461,-0.542354
1515651264225,0.082613,-0.001416,-0.11617,1.059057,-0.077551,-0.506546
1515651264235,0.102444,0.006445,-0.07787,1.11658,-0.204208,-0.425509
1515651264245,0.109267,0.014772,-0.040738,1.113671,-0.316047,-0.344235
1515651264255,0.101709,0.018308,-0.009145,1.063033,-0.410748,-0.290533
1515651264265,0.091042,0.016932,0.006396,0.98589,-0.507369,-0.297555
1515651264276,0.070448,0.028372,-0.00608,0.923549,-0.596127,-0.36869
1515651264286,0.042584,0.033893,-0.026482,0.869595,-0.646171,-0.463394
1515651264296,0.014336,0.040763,-0.033215,0.789796,-0.51198,-0.564626
1515651264306,-0.004982,0.050649,-0.034975,0.70018,-0.254556,-0.676642
1515651264316,0.00459,0.055411,-0.029325,0.639211,-0.006959,-0.734331
1515651264326,0.04737,0.056116,0.017122,0.553872,0.246646,-0.722543
1515651264336,0.081279,0.052686,0.046875,0.415616,0.471077,-0.69341
1515651264346,0.093681,0.045964,0.029877,0.269037,0.630023,-0.642817
1515651264356,0.095192,0.064671,0.026368,0.188278,0.737666,-0.577499
1515651264366,0.092934,0.079763,0.017922,0.160668,0.770477,-0.513379
1515651264376,0.091841,0.074414,-0.000914,0.15864,0.736932,-0.448218
1515651264386,0.084004,0.074493,-0.017334,0.190582,0.674621,-0.394907
1515651264396,0.086502,0.09021,-0.025515,0.24267,0.603889,-0.359812
1515651264407,0.089378,0.105197,-0.015819,0.288416,0.526732,-0.328956
1515651264417,0.085267,0.113568,-0.004522,0.340528,0.44748,-0.303469
1515651264427,0.069794,0.144058,0.00207,0.393618,0.400482,-0.300434
1515651264437,0.053219,0.177503,0.027904,0.404226,0.397128,-0.266313
1515651264447,0.059672,0.205801,0.084645,0.349961,0.501711,-0.216045
1515651264457,0.025501,0.259286,0.131362,0.280821,0.627512,-0.132652
1515651264467,-0.007658,0.284502,0.121774,0.225725,0.644596,0.060759
1515651264477,-0.01692,0.265098,0.10036,0.149515,0.633434,0.319406
1515651264487,-0.021659,0.221474,0.084182,0.069021,0.637499,0.53002
1515651264497,-0.0409,0.20407,0.049418,0.004348,0.658423,0.592179
1515651264507,-0.085982,0.171692,0.011246,-0.023077,0.600538,0.581695
1515651264517,-0.122109,0.113604,-0.013621,-0.019578,0.457019,0.574388
1515651264527,-0.136534,0.053839,-0.01337,-0.009727,0.314643,0.556379
1515651264538,-0.147329,0.019411,-0.014956,-0.00943,0.175677,0.493574
1515651264548,-0.167083,0.047789,-0.044158,0.012938,0.105901,0.319581
1515651264558,-0.165963,0.066186,-0.061476,0.055271,0.111215,0.139003
1515651264568,-0.135119,0.054708,-0.043644,0.115579,0.147046,0.079994
1515651264578,-0.085676,0.023417,-0.006928,0.153512,0.247604,0.133081
1515651264588,-0.029651,0.000308,0.026913,0.18398,0.371669,0.194704
1515651264598,0.01629,0.024591,0.00239,0.237942,0.406234,0.170945
1515651264608,0.034737,0.019937,-0.001166,0.291998,0.396935,0.134435
1515651264618,0.051219,-0.022951,0.046224,0.347113,0.391745,0.134206
1515651264628,0.059227,-0.055928,0.084908,0.392756,0.358621,0.143659
1515651264638,0.060899,-0.053441,0.088627,0.422677,0.243176,0.108452
1515651264648,0.051972,-0.02,0.089827,0.398584,0.109579,0.028668
1515651264658,0.046179,0.03622,0.105673,0.329971,-0.019815,-0.061603
1515651264668,0.038194,0.103837,0.099236,0.238001,-0.123783,-0.108046
1515651264679,0.019453,0.117247,0.093056,0.142727,-0.164863,-0.091579
1515651264689,0.000282,0.096925,0.079137,0.062158,-0.147042,-0.06137
1515651264699,-0.013146,0.081831,0.059869,-0.012102,-0.105678,-0.021612
1515651264709,-0.00559,0.042801,0.050137,-0.076831,-0.059062,0.044784
1515651264719,-0.025301,0.069181,0.030588,-0.133002,-0.064211,-0.030752
1515651264729,-0.06898,0.159759,0.005192,-0.194501,-0.061593,-0.162849
1515651264739,-0.082475,0.163241,0.005146,-0.242323,-0.004734,-0.206481
1515651264749,-0.052878,0.131842,0.001383,-0.289121,0.072254,-0.204243
1515651264759,-0.020297,0.12751,-0.002413,-0.337947,0.109585,-0.199813
1515651264769,0.016987,0.098446,0.010989,-0.415392,0.153082,-0.160044
1515651264779,0.043961,0.081026,0.030314,-0.482202,0.177378,-0.130965
1515651264789,0.075193,0.072344,0.019055,-0.527679,0.142716,-0.082695
1515651264799,0.095546,0.055564,0.009849,-0.543495,0.113507,-0.03563
1515651264810,0.089358,0.046067,0.008245,-0.520214,0.132634,0.010144
1515651264820,0.089679,0.04322,-0.002428,-0.470398,0.134602,0.07504
1515651264830,0.107868,0.028168,-0.001807,-0.417406,0.137661,0.137786
1515651264840,0.113066,0.015183,0.011142,-0.366449,0.096073,0.12908
1515651264850,-0.038132,0.179321,-0.000187,-0.177051,0.181103,-0.264634
1515651264860,0.024992,0.053364,-0.013463,-0.00845,0.14045,-0.175641
1515651264870,0.135714,-0.054006,-0.038993,0.092443,0.046195,-0.120449
1515651264880,0.098686,0.007063,-0.011745,0.177502,-0.084176,-0.137722
1515651264890,0.031104,0.025233,0.020627,0.178832,-0.220591,-0.281654
1515651264900,0.031178,0.018166,0.055161,0.190394,-0.177695,-0.282826
1515651264910,0.158284,-0.009925,0.041606,0.124827,-0.22457,-0.160805
1515651264920,0.156423,-0.039295,0.079645,0.026138,-0.148371,-0.031326
1515651264930,0.159449,-0.046747,0.071969,-0.082027,-0.10517,0.049136
1515651264941,0.095639,-0.025418,0.04217,-0.149986,-0.040109,0.067488
1515651264951,0.037196,-0.009993,0.007849,-0.184013,0.012292,0.0665
1515651264961,0.050977,-0.022468,-0.044274,-0.126664,-0.03611,0.138897
1515651264971,0.183081,-0.048126,-0.115945,0.020633,-0.015245,0.339978
1515651264981,0.17255,-0.070711,-0.109497,0.077988,-0.057737,0.515913
1515651264991,0.074663,-0.052073,-0.071147,0.08124,-0.077604,0.634404
1515651265001,0.084541,-0.032553,-0.051683,0.116293,-0.112906,0.644969
1515651265011,0.04514,-0.082,-0.065404,0.168439,-0.214414,0.621391
1515651265021,0.011322,-0.110103,-0.070637,0.222784,-0.353303,0.575433
1515651265031,-0.010836,-0.108009,-0.064532,0.26321,-0.433125,0.493171
1515651265041,-0.031147,-0.121835,-0.051611,0.277106,-0.493839,0.430213
1515651265051,-0.044687,-0.12618,-0.042278,0.253807,-0.50441,0.38763
1515651265061,-0.054432,-0.114541,-0.029275,0.183703,-0.434811,0.353687
1515651265072,-0.072015,-0.119905,-0.03209,0.089238,-0.367528,0.34013
1515651265082,-0.084694,-0.126082,-0.054332,0.032835,-0.263613,0.308218
1515651265092,-0.124235,-0.126137,-0.073378,-0.000243,-0.167021,0.254869
1515651265102,-0.147718,-0.124911,-0.087887,-0.019489,-0.096127,0.206833
1515651265112,-0.159897,-0.121482,-0.054974,-0.012566,0.122576,0.183047
1515651265122,-0.15601,-0.123411,-0.027356,-0.058373,0.225581,0.125469
1515651265132,-0.154308,-0.121347,-0.02973,-0.122975,0.201069,0.060665
1515651265142,-0.150402,-0.119531,-0.028028,-0.145908,0.024517,0.001212
1515651265152,-0.157568,-0.130955,-0.034564,-0.152102,-0.051454,-0.022149
1515651265162,-0.141019,-0.137639,-0.004372,-0.15422,-0.056588,-0.068032
1515651265172,-0.146951,-0.08342,-0.021464,-0.120108,-0.155731,-0.14704
1515651265182,-0.178975,-0.016484,-0.061073,-0.097502,-0.314187,-0.155477
1515651265192,-0.176142,0.024454,-0.043683,-0.128185,-0.323426,-0.040056
1515651265202,-0.139925,0.061173,-0.006707,-0.206874,-0.18719,0.093533
1515651265213,-0.144052,0.102916,-0.028153,-0.209053,-0.145076,0.240789
1515651265223,-0.150372,0.078538,-0.073401,-0.157035,-0.169305,0.403907
1515651265233,-0.13445,0.020668,-0.103453,-0.076479,-0.166397,0.513501
1515651265243,-0.127387,-0.014352,-0.104216,0.004159,-0.209153,0.542029
1515651265253,-0.124539,-0.054292,-0.113052,0.026674,-0.324849,0.552752
1515651265263,-0.11883,-0.059515,-0.112355,0.055522,-0.437015,0.503673
1515651265273,-0.121395,-0.07517,-0.132482,0.082101,-0.484737,0.42143
1515651265283,-0.126245,-0.07298,-0.147923,0.106533,-0.522658,0.306092
1515651265293,-0.104587,-0.026203,-0.170613,0.131969,-0.530838,0.243018
1515651265303,-0.074336,-0.076708,-0.145622,0.185811,-0.440738,0.25442
1515651265313,-0.073556,-0.108099,-0.137331,0.242902,-0.37755,0.293591
1515651265323,-0.062629,-0.105391,-0.137549,0.275685,-0.346407,0.298746
1515651265333,-0.028346,-0.101814,-0.121364,0.279786,-0.292462,0.226079
1515651265344,-0.001825,-0.101655,-0.100173,0.260485,-0.199992,0.148128
1515651265354,0.023847,-0.155472,-0.066663,0.241048,-0.044389,0.086108
1515651265364,0.055028,-0.172655,-0.03661,0.252364,0.102693,0.032503
1515651265374,0.09585,-0.156921,-0.018198,0.266948,0.208064,-0.033869
1515651265384,0.136457,-0.133429,-0.008492,0.239176,0.298394,-0.117123
1515651265394,0.15954,-0.122101,-0.008847,0.227323,0.383143,-0.145998
1515651265404,0.172894,-0.122471,-0.021433,0.288795,0.378978,-0.133444
1515651265414,0.195009,-0.097659,-0.037575,0.374893,0.265462,-0.092041
1515651265424,0.204324,-0.062856,-0.061465,0.482395,0.058729,-0.036734
1515651265434,0.193843,-0.053698,-0.112148,0.646244,-0.229281,0.022701
1515651265444,0.145299,-0.008804,-0.190421,0.810062,-0.503358,0.08105
1515651265454,0.088885,-0.042455,-0.200436,1.022166,-0.568537,0.173089
1515651265464,0.035101,-0.124042,-0.178935,1.189425,-0.490939,0.181884
1515651265475,-0.001575,-0.143098,-0.151669,1.191126,-0.311649,0.10907
1515651265485,-0.010218,-0.102813,-0.092198,0.994377,-0.004336,0.02627
1515651265495,0.023363,-0.079845,0.002734,0.672295,0.438432,-0.009201
1515651265505,0.062981,-0.087907,0.052537,0.348418,0.743699,0.027023
1515651265515,0.090141,-0.074981,-0.003966,0.124857,0.734251,0.06855
1515651265525,0.095997,-0.05181,-0.06825,0.101855,0.602108,0.127517
1515651265535,0.09598,-0.067264,-0.10203,0.259234,0.367494,0.217867
1515651265545,0.110658,-0.094403,-0.135448,0.55974,0.099133,0.2863
1515651265555,0.11255,-0.123453,-0.166682,0.871832,-0.14116,0.319426
1515651265565,0.095019,-0.117252,-0.174394,1.059888,-0.355171,0.378665
1515651265575,0.068957,-0.098028,-0.158946,1.138515,-0.445144,0.421138
1515651265585,0.05087,-0.110829,-0.131828,1.144944,-0.477224,0.41261
1515651265595,0.019188,-0.109347,-0.143102,1.067811,-0.578125,0.404526
1515651265606,0.002369,-0.117102,-0.117546,1.019065,-0.582334,0.359909
1515651265616,0.00741,-0.157011,-0.080797,1.036781,-0.457599,0.279623
1515651265626,0.036518,-0.157049,-0.072434,1.042738,-0.291996,0.160915
1515651265636,0.03723,-0.133836,-0.072638,0.963051,-0.201018,0.131254
1515651265646,0.022665,-0.110775,-0.080544,0.888636,-0.091015,0.157047
1515651265656,0.044537,-0.108362,-0.071466,0.842802,0.026801,0.136814
1515651265666,0.053654,-0.108012,-0.06662,0.802456,0.060974,0.134811
1515651265676,0.052958,-0.094106,-0.068542,0.839428,0.109475,0.099369
1515651265686,0.063301,-0.109954,-0.069089,0.884031,0.060586,0.046938
1515651265696,0.063137,-0.103743,-0.062572,0.876718,0.008305,-0.000997
1515651265706,0.066874,-0.068425,-0.031952,0.87424,0.173101,0.037232
1515651265716,0.106272,0.005225,-0.058532,0.794694,0.218287,0.166669
1515651265726,0.00831,-0.05256,-0.047706,0.735477,0.160289,0.159526
1515651265736,0.010927,-0.127277,-0.017564,0.827755,0.103585,-0.015848
1515651265747,0.090265,-0.100749,-0.054199,0.870525,-0.077906,-0.119343
1515651265757,0.065025,-0.057558,-0.061717,0.850475,-0.1124,-0.089328
1515651265767,0.04835,-0.051389,-0.029857,0.854595,-0.05989,-0.089408
1515651265777,0.05705,-0.038973,-0.032796,0.86736,-0.081306,-0.084099
1515651265787,0.063296,-0.043354,-0.029861,0.887643,-0.146648,-0.074498
1515651265797,0.048418,-0.041909,-0.03719,0.91115,-0.234373,-0.08623
1515651265807,0.041014,-0.044032,-0.049109,0.914478,-0.300789,-0.086162
1515651265817,0.038477,-0.041371,-0.041514,0.896552,-0.339467,-0.075363
1515651265827,0.029137,-0.032284,-0.051344,0.903031,-0.393006,-0.07746
1515651265837,0.018343,-0.031519,-0.078955,0.940086,-0.378929,-0.085108
1515651265847,-0.009845,-0.034171,-0.10869,0.951719,-0.36923,-0.089437
1515651265857,-0.024301,-0.040434,-0.104699,0.939024,-0.380958,-0.108581
1515651265867,-0.03468,-0.036909,-0.08741,0.917756,-0.35395,-0.166163
1515651265878,-0.048382,-0.036529,-0.10517,0.871111,-0.350636,-0.214
1515651265888,-0.055893,-0.047664,-0.09951,0.829697,-0.316291,-0.251223
1515651265898,-0.054065,-0.044185,-0.097899,0.787289,-0.310875,-0.288408
1515651265908,-0.040385,-0.042007,-0.094485,0.765059,-0.323671,-0.313915
1515651265918,-0.026848,-0.037905,-0.090013,0.762969,-0.337573,-0.320293
1515651265928,-0.025631,-0.020599,-0.094019,0.785255,-0.351455,-0.316103
1515651265938,-0.023337,-0.006769,-0.098881,0.82135,-0.379272,-0.302346
1515651265948,-0.030372,0.020655,-0.093348,0.81085,-0.42015,-0.275565
1515651265958,-0.049388,0.076124,-0.067759,0.739941,-0.45387,-0.216513
1515651265968,-0.057087,0.122482,-0.051913,0.641491,-0.48682,-0.113585
1515651265978,-0.056325,0.155013,-0.056652,0.549415,-0.525241,0.016011
1515651265988,-0.059714,0.180524,-0.064807,0.46583,-0.569042,0.155185
1515651265998,-0.065761,0.192975,-0.070412,0.408767,-0.626643,0.284655
1515651266009,-0.06799,0.180707,-0.079756,0.374016,-0.71297,0.387379
1515651266019,-0.072443,0.160468,-0.101332,0.376441,-0.841877,0.456911
1515651266029,-0.083304,0.13811,-0.129023,0.410648,-0.971611,0.496424
1515651266039,-0.102675,0.11699,-0.149408,0.474399,-1.045446,0.516524
1515651266049,-0.119797,0.104326,-0.148813,0.550712,-1.051676,0.522609
1515651266059,-0.12599,0.095305,-0.130053,0.609958,-1.009659,0.51163
1515651266069,-0.127008,0.089253,-0.094324,0.588671,-0.970051,0.505271
1515651266079,-0.125709,0.092444,-0.052101,0.473986,-0.864259,0.491752
1515651266089,-0.087311,0.081405,0.026396,0.420574,-0.681819,0.398886
1515651266099,-0.046436,0.074778,0.03687,0.335593,-0.599141,0.311619
1515651266109,-0.019488,0.077826,0.029572,0.266498,-0.509053,0.252028
1515651266119,0.008274,0.068557,0.043638,0.23235,-0.404085,0.237099
1515651266129,0.048479,0.065392,0.031612,0.241691,-0.317182,0.2188
1515651266140,0.093304,0.049068,0.030989,0.341063,-0.216949,0.159544
1515651266150,0.138773,0.026142,0.034089,0.441619,-0.174505,0.087548
1515651266160,0.172659,0.02116,0.045897,0.511565,-0.18366,0.031757
1515651266170,0.192189,0.026925,0.063009,0.542361,-0.217612,-0.016365
1515651266180,0.204319,0.045884,0.083868,0.529714,-0.254861,-0.073904
1515651266190,0.2189,0.076682,0.100199,0.496911,-0.281495,-0.123895
1515651266200,0.240242,0.10522,0.10959,0.405833,-0.308448,-0.144821
1515651266210,0.258066,0.141286,0.119534,0.275521,-0.318563,-0.128244
1515651266220,0.266237,0.181983,0.121189,0.134553,-0.298898,-0.074297
1515651266230,0.263337,0.214133,0.102396,0.027459,-0.262106,0.002968
1515651266240,0.259665,0.232255,0.076011,-0.035119,-0.226341,0.098188
1515651266250,0.261884,0.241991,0.049179,-0.064813,-0.204475,0.207161
1515651266260,0.262406,0.242802,0.029944,-0.067947,-0.212549,0.320328
1515651266270,0.246883,0.23764,0.0171,-0.061501,-0.239841,0.426004
1515651266281,0.224131,0.229972,0.006301,-0.030647,-0.286228,0.508119
1515651266291,0.202585,0.217635,-0.003754,0.0034,-0.340063,0.581692
1515651266301,0.189772,0.208726,-0.005263,0.026857,-0.396089,0.658514
1515651266311,0.181373,0.204906,-0.005046,0.03968,-0.435079,0.750307
1515651266321,0.173305,0.201785,-0.008782,0.058854,-0.467728,0.863409
1515651266331,0.170843,0.187373,-0.020598,0.088659,-0.514337,0.989293
1515651266341,0.165953,0.163842,-0.036885,0.133296,-0.559792,1.10764
1515651266351,0.149422,0.147689,-0.046157,0.182123,-0.582702,1.21953
1515651266361,0.129598,0.128674,-0.056479,0.239404,-0.600087,1.302563
1515651266371,0.097976,0.103262,-0.06814,0.31255,-0.609713,1.342829
1515651266381,0.065927,0.07646,-0.074183,0.394145,-0.607431,1.363826
1515651266391,0.045736,0.050914,-0.07394,0.465171,-0.617989,1.375275
1515651266401,0.027084,0.025441,-0.067176,0.513954,-0.634968,1.371886
1515651266412,0.006192,-0.003965,-0.053059,0.543621,-0.635827,1.34721
1515651266422,-0.011857,-0.020943,-0.038296,0.563755,-0.636795,1.338586
1515651266432,-0.024592,-0.037034,-0.031343,0.553184,-0.650643,1.316233
1515651266442,-0.041449,-0.061785,-0.025601,0.530966,-0.670854,1.273658
1515651266452,-0.05715,-0.080533,-0.018,0.497057,-0.677102,1.217238
1515651266462,-0.071834,-0.091038,-0.011014,0.441873,-0.646998,1.162999
1515651266472,-0.081756,-0.101821,-0.009206,0.380295,-0.600853,1.110905
1515651266482,-0.08705,-0.117895,-0.013369,0.300661,-0.536527,1.054592
1515651266492,-0.097734,-0.129989,-0.015808,0.211445,-0.452881,0.985487
1515651266502,-0.106797,-0.137464,-0.015556,0.113694,-0.342523,0.925992
1515651266512,-0.109698,-0.143307,-0.018463,0.024447,-0.242907,0.877148
1515651266522,-0.112879,-0.145103,-0.024989,-0.046738,-0.16467,0.829321
1515651266532,-0.114251,-0.147335,-0.02871,-0.099873,-0.102477,0.786776
1515651266543,-0.113602,-0.1511,-0.036309,-0.127502,-0.072353,0.745228
1515651266553,-0.115056,-0.152909,-0.046269,-0.139166,-0.071151,0.712184
1515651266563,-0.118445,-0.153689,-0.052375,-0.178202,-0.146357,0.73059
1515651266573,-0.129816,-0.146354,-0.05889,-0.199405,-0.144171,0.70933
1515651266583,-0.132786,-0.147967,-0.033042,-0.143302,-0.12645,0.626879
1515651266593,-0.145754,-0.13884,-0.057926,-0.141013,-0.208642,0.5672
1515651266603,-0.166335,-0.120112,-0.070595,-0.17375,-0.26116,0.551394
1515651266613,-0.168828,-0.115193,-0.062247,-0.203517,-0.221448,0.519451
1515651266623,-0.157955,-0.114689,-0.072582,-0.235478,-0.151616,0.46186
1515651266633,-0.140121,-0.12518,-0.090187,-0.256878,-0.066715,0.396736
1515651266643,-0.120734,-0.137063,-0.100728,-0.274131,0.05793,0.313397
1515651266653,-0.102607,-0.135585,-0.10392,-0.289329,0.210438,0.230017
1515651266663,-0.076196,-0.129294,-0.100666,-0.292805,0.33714,0.172234
1515651266674,-0.054833,-0.121721,-0.100349,-0.276007,0.403761,0.14326
1515651266684,-0.043541,-0.10914,-0.09128,-0.251714,0.439206,0.13991
1515651266694,-0.025862,-0.102575,-0.07136,-0.233732,0.456318,0.156887
1515651266704,-0.004445,-0.104638,-0.059425,-0.211443,0.442356,0.17709
1515651266714,0.001297,-0.103998,-0.057731,-0.184806,0.378126,0.182393
1515651266724,-0.030122,-0.073552,-0.066919,-0.158066,0.267836,0.185619
1515651266734,-0.06539,-0.022598,-0.074107,-0.106001,0.210916,0.244175
1515651266744,-0.070112,0.006524,-0.078653,-0.020033,0.161401,0.34207
1515651266754,-0.072352,0.020633,-0.092363,0.10316,0.056062,0.484706
1515651266764,-0.09276,0.017228,-0.10417,0.246594,-0.094358,0.656131
1515651266774,-0.131336,0.000614,-0.100407,0.378374,-0.249985,0.790257
1515651266784,-0.179402,-0.017655,-0.085498,0.474077,-0.390428,0.865809
1515651266794,-0.222748,-0.054319,-0.081129,0.544321,-0.524263,0.890226
1515651266804,-0.256935,-0.103813,-0.082855,0.569993,-0.633383,0.873175
1515651266815,-0.282338,-0.150264,-0.081868,0.552112,-0.698504,0.815692
1515651266825,-0.294205,-0.198405,-0.08199,0.505463,-0.699194,0.711288
1515651266835,-0.299954,-0.243531,-0.088056,0.433229,-0.636579,0.572761
1515651266845,-0.293675,-0.281576,-0.093468,0.347087,-0.515004,0.419272
1515651266855,-0.273438,-0.313372,-0.098137,0.247098,-0.363391,0.249792
1515651266865,-0.247568,-0.339869,-0.101581,0.149202,-0.20101,0.070686
1515651266875,-0.208498,-0.360078,-0.110336,0.074597,-0.029978,-0.110664
1515651266885,-0.168884,-0.363028,-0.118124,0.044527,0.129388,-0.28899
1515651266895,-0.123027,-0.349962,-0.128059,0.055844,0.264156,-0.451451
1515651266905,-0.076009,-0.320278,-0.129648,0.092701,0.35282,-0.591548
1515651266915,-0.031308,-0.274606,-0.118528,0.12544,0.39199,-0.692072
1515651266925,0.007824,-0.221903,-0.102481,0.148739,0.393366,-0.739138
1515651266935,0.040705,-0.167235,-0.083439,0.172118,0.364477,-0.732797
1515651266946,0.061977,-0.116432,-0.072473,0.201963,0.291493,-0.68907
1515651266956,0.066603,-0.069884,-0.071794,0.252027,0.184116,-0.611231
1515651266966,0.06353,-0.030674,-0.079938,0.32228,0.054193,-0.512101
1515651266976,0.048849,-0.002175,-0.09417,0.39889,-0.077817,-0.42046
1515651266986,0.022277,0.01406,-0.107336,0.473338,-0.192536,-0.359793
1515651266996,0.002077,0.019361,-0.115327,0.521223,-0.277131,-0.339618
1515651267006,0.001547,0.012319,-0.121541,0.555265,-0.337011,-0.342891
1515651267016,0.013103,0.000937,-0.13226,0.570198,-0.381928,-0.350368
1515651267026,0.030246,-0.010238,-0.147772,0.591465,-0.414021,-0.347216
1515651267036,0.048067,-0.018073,-0.162868,0.625431,-0.437564,-0.33239
1515651267046,0.064989,-0.025853,-0.186202,0.704973,-0.464237,-0.307078
1515651267056,0.080431,-0.039245,-0.214311,0.822724,-0.516556,-0.272293
1515651267066,0.085724,-0.045782,-0.236103,0.965892,-0.562375,-0.236556
1515651267077,0.079048,-0.045159,-0.253738,1.134495,-0.608198,-0.184916
1515651267087,0.074491,-0.048775,-0.265354,1.299907,-0.649675,-0.147144
1515651267097,0.059029,-0.06354,-0.270072,1.453639,-0.682515,-0.129614
1515651267107,0.03604,-0.064246,-0.258877,1.576572,-0.688493,-0.146143
1515651267117,0.011919,-0.063159,-0.239382,1.650701,-0.672029,-0.180632
1515651267127,-0.003667,-0.069604,-0.217039,1.679202,-0.626747,-0.220304
1515651267137,-0.010978,-0.066711,-0.192916,1.657869,-0.567692,-0.258715
1515651267147,-0.011997,-0.063284,-0.174957,1.6185,-0.500121,-0.297058
1515651267157,-0.015229,-0.062077,-0.164506,1.56958,-0.42614,-0.337502
1515651267167,-0.013971,-0.054299,-0.153357,1.520666,-0.354344,-0.369405
1515651267177,-0.006069,-0.045605,-0.149448,1.488773,-0.30934,-0.389609
1515651267187,0.005803,-0.043218,-0.153911,1.490873,-0.301796,-0.397099
1515651267197,0.015983,-0.045553,-0.161219,1.520569,-0.314543,-0.401476
1515651267207,0.024099,-0.047309,-0.16573,1.583159,-0.345409,-0.404906
1515651267218,0.029711,-0.049098,-0.165972,1.641538,-0.389128,-0.411505
1515651267228,0.02582,-0.051474,-0.156125,1.689298,-0.424265,-0.426609
1515651267238,0.010266,-0.050862,-0.151755,1.735981,-0.45292,-0.453455
1515651267248,-0.01905,-0.044035,-0.151771,1.807005,-0.467556,-0.483627
1515651267258,-0.056653,-0.025073,-0.134836,1.863153,-0.464012,-0.515894
1515651267268,-0.092808,0.003446,-0.102327,1.859915,-0.442365,-0.561805
1515651267278,-0.1117,0.027149,-0.059841,1.781371,-0.389858,-0.610638
1515651267288,-0.112128,0.035472,-0.02075,1.633913,-0.323572,-0.670933
1515651267298,-0.091496,0.033991,0.010318,1.437666,-0.239199,-0.735309
1515651267308,-0.062479,0.03127,0.028164,1.217003,-0.133514,-0.791071
1515651267318,-0.039538,0.033478,0.030786,1.011111,0.005275,-0.815987
1515651267328,-0.028822,0.04357,0.021719,0.821079,0.161147,-0.81964
1515651267338,-0.029722,0.056505,0.006608,0.669217,0.306426,-0.824509
1515651267349,-0.029564,0.067272,-0.008736,0.564082,0.406868,-0.833793
1515651267359,-0.035138,0.083295,-0.023549,0.503557,0.459285,-0.853879
1515651267369,-0.041893,0.097128,-0.031447,0.488694,0.469005,-0.878377
1515651267379,-0.03145,0.090858,-0.033882,0.506796,0.429488,-0.892285
1515651267389,-0.015633,0.079452,-0.033967,0.544029,0.364277,-0.898767
1515651267399,-0.001784,0.078998,-0.033485,0.596092,0.30121,-0.896771
1515651267409,0.003917,0.081121,-0.034404,0.650288,0.234872,-0.881975
1515651267419,0.007769,0.083483,-0.035234,0.699139,0.190959,-0.855447
1515651267429,0.014873,0.091775,-0.027364,0.716148,0.170478,-0.82027
1515651267439,0.020211,0.105542,-0.00841,0.688549,0.19485,-0.782821
1515651267449,0.022495,0.117872,0.014454,0.626978,0.249071,-0.735661
1515651267459,0.02663,0.126673,0.035297,0.559048,0.303284,-0.690609
1515651267469,0.026617,0.138709,0.042474,0.50921,0.324274,-0.632784
1515651267480,0.023047,0.162161,0.049141,0.473234,0.308766,-0.552556
1515651267490,0.021037,0.183738,0.060746,0.446863,0.265341,-0.454189
1515651267500,0.015806,0.195274,0.069983,0.435399,0.189797,-0.351574
1515651267510,0.004911,0.198918,0.073499,0.436697,0.09394,-0.250058
1515651267520,-0.00891,0.197762,0.078012,0.427402,-0.003008,-0.150632
1515651267530,-0.019099,0.192851,0.089884,0.390495,-0.075324,-0.066061
1515651267540,-0.02485,0.181777,0.104409,0.311125,-0.11553,-0.00056
1515651267550,-0.026172,0.167285,0.114564,0.193531,-0.124669,0.042649
1515651267560,-0.028673,0.155282,0.114716,0.064215,-0.10699,0.072002
1515651267570,-0.032274,0.146898,0.10429,-0.047144,-0.063484,0.089501
1515651267580,-0.02631,0.13423,0.087528,-0.127805,-0.005892,0.094038
1515651267590,-0.014151,0.129514,0.074995,-0.188328,0.047533,0.086757
1515651267600,-0.000461,0.134994,0.074571,-0.231915,0.110587,0.092203
1515651267611,0.027138,0.144544,0.080625,-0.260646,0.167146,0.120006
1515651267621,0.061823,0.14998,0.080473,-0.265976,0.186202,0.162698
1515651267631,0.099345,0.142399,0.076489,-0.243659,0.162491,0.204261
1515651267641,0.125249,0.138189,0.072832,-0.195848,0.109928,0.245754
1515651267651,0.144507,0.1348,0.069792,-0.121486,0.031728,0.28823
1515651267661,0.165094,0.120088,0.0665,-0.033308,-0.063568,0.329599
1515651267671,0.183399,0.095769,0.063172,0.068641,-0.158743,0.3549
1515651267681,0.189864,0.074437,0.065513,0.155715,-0.240957,0.350365
1515651267691,0.191022,0.055668,0.071302,0.209893,-0.303868,0.322461
1515651267701,0.197167,0.042451,0.087848,0.226896,-0.330372,0.276524
1515651267711,0.198347,0.045389,0.10894,0.190869,-0.337693,0.219048
1515651267721,0.196276,0.061841,0.124155,0.111364,-0.329105,0.168139
1515651267731,0.200676,0.092343,0.130103,0.023419,-0.334642,0.151443
1515651267741,0.198013,0.123525,0.123926,-0.045401,-0.360628,0.164581
1515651267752,0.189123,0.150901,0.115406,-0.088749,-0.399579,0.214982
1515651267762,0.17295,0.183892,0.10149,-0.108706,-0.470692,0.283467
1515651267772,0.143213,0.206875,0.082456,-0.110597,-0.564309,0.363646
1515651267782,0.102565,0.220529,0.065031,-0.093419,-0.656727,0.429866
1515651267792,0.057684,0.225774,0.052898,-0.079444,-0.741522,0.469406
1515651267802,0.021388,0.21998,0.041776,-0.069729,-0.819829,0.494017
1515651267812,-0.001428,0.211066,0.031862,-0.079144,-0.872452,0.513337
1515651267822,-0.01687,0.193204,0.02225,-0.087576,-0.889726,0.534741
1515651267832,-0.023091,0.165813,0.011178,-0.102442,-0.872788,0.566804
1515651267842,-0.026054,0.140436,0.005227,-0.132254,-0.806584,0.593532
1515651267852,-0.029506,0.115129,0.008233,-0.185497,-0.688971,0.609623
1515651267862,-0.02478,0.086348,0.012939,-0.26741,-0.546722,0.609793
1515651267872,-0.010134,0.06625,0.013995,-0.362026,-0.411936,0.595084
1515651267883,0.005101,0.057641,0.005727,-0.43327,-0.304949,0.58245
1515651267893,0.02769,0.054036,-0.014729,-0.457816,-0.226827,0.585659
1515651267903,0.058901,0.049287,-0.041052,-0.430365,-0.177635,0.620702
1515651267913,0.080252,0.047304,-0.063455,-0.364719,-0.148738,0.666284
1515651267923,0.087747,0.047142,-0.07624,-0.268293,-0.140142,0.719228
1515651267933,0.091785,0.043221,-0.080223,-0.154873,-0.149704,0.771058
1515651267943,0.097979,0.035789,-0.078673,-0.052006,-0.178593,0.825091
1515651267953,0.099744,0.027499,-0.069053,0.030716,-0.203236,0.874936
1515651267963,0.092818,0.019401,-0.059233,0.082695,-0.223654,0.918504
1515651267973,0.083479,0.012468,-0.051059,0.117707,-0.238719,0.95253
1515651267983,0.074704,-0.001032,-0.046437,0.142121,-0.254849,0.979132
1515651267993,0.05619,-0.01216,-0.045147,0.147445,-0.265579,0.985527
1515651268003,0.043143,-0.024034,-0.038147,0.119887,-0.261403,0.990973
1515651268014,0.040344,-0.037094,-0.032247,0.073204,-0.235841,0.993275
1515651268024,0.036789,-0.045565,-0.036962,0.030755,-0.207111,1.007298
1515651268034,0.033681,-0.052724,-0.051546,0.007391,-0.18159,1.031916
1515651268044,0.026015,-0.060205,-0.06989,0.010552,-0.169949,1.062841
1515651268054,0.017698,-0.069778,-0.08543,0.038099,-0.165682,1.082998
1515651268064,0.006618,-0.080208,-0.096454,0.076269,-0.174213,1.097791
1515651268074,-0.007764,-0.091156,-0.103269,0.12082,-0.193401,1.105097
1515651268084,-0.025627,-0.09368,-0.109025,0.171754,-0.224307,1.102783
1515651268094,-0.062197,-0.090127,-0.109857,0.2248,-0.254056,1.084448
1515651268104,-0.104413,-0.08559,-0.101831,0.254503,-0.272053,1.058731
1515651268114,-0.14812,-0.0782,-0.084991,0.233278,-0.261254,1.028921
1515651268124,-0.18857,-0.070714,-0.063854,0.153723,-0.229203,0.999334
1515651268134,-0.225316,-0.067676,-0.048837,0.022145,-0.154383,0.956038
1515651268145,-0.253233,-0.068466,-0.032355,-0.146636,-0.029245,0.897893
1515651268155,-0.254259,-0.07932,-0.027873,-0.321827,0.116314,0.822674
1515651268165,-0.228583,-0.115561,-0.039873,-0.480092,0.274755,0.752706
1515651268175,-0.187845,-0.150113,-0.065227,-0.586332,0.38941,0.68577
1515651268185,-0.158104,-0.170157,-0.101896,-0.608818,0.487164,0.620631
1515651268195,-0.135327,-0.188347,-0.121967,-0.57406,0.575417,0.561665
1515651268205,-0.11402,-0.194693,-0.129771,-0.503196,0.630522,0.511126
1515651268215,-0.103235,-0.19012,-0.126048,-0.399385,0.640766,0.453031
1515651268225,-0.128464,-0.148356,-0.114721,-0.285893,0.588834,0.407779
1515651268235,-0.161178,-0.079396,-0.08543,-0.195655,0.515174,0.408554
