time, accel x, accel y, accel z, gyro x, gyro y, gyro z
1515636913.91001, 0.008027, -0.029742, -0.004701, -0.028549, 0.101981, 0.203217
1515636913.92002, 0.010549, -0.019791, -0.016799, -0.021033, 0.107814, 0.201395
1515636913.93003, 0.005851, -0.005811, -0.01018, -0.014076, 0.114311, 0.199542
1515636913.94001, -0.001001, 0.013775, 0.008619, -0.007738, 0.12062, 0.197328
1515636913.95002, -0.007148, 0.01554, 0.035467, -0.001916, 0.126242, 0.194681
1515636913.96003, -0.016485, 0.002001, 0.05237, 0.003715, 0.130869, 0.191749
1515636913.97004, -0.025263, -0.012684, 0.054291, 0.009449, 0.134634, 0.18872
1515636913.98005, -0.024924, -0.019647, 0.037056, 0.015088, 0.137894, 0.18584
1515636913.99006, -0.024591, -0.01756, 0.025701, 0.020524, 0.140849, 0.183097
1515636914.00007, -0.007912, -0.022826, 0.011396, 0.025604, 0.143529, 0.180415
1515636914.01008, 0.005341, -0.018147, 0.011232, 0.030141, 0.146022, 0.177723
1515636914.02009, 0.014113, -0.009462, 0.0211, 0.034199, 0.148708, 0.174927
1515636914.0301, 0.018986, -0.011004, 0.040097, 0.037747, 0.151841, 0.172076
1515636914.04011, 0.02423, -0.016142, 0.066372, 0.04091, 0.155335, 0.169199
1515636914.05012, 0.033982, -0.016132, 0.087844, 0.044011, 0.159068, 0.166234
1515636914.06013, 0.04017, -0.011948, 0.106469, 0.047406, 0.163106, 0.163099
1515636914.07014, 0.033593, -0.000453, 0.116331, 0.051564, 0.167597, 0.159662
1515636914.08015, 0.022859, -0.003586, 0.114246, 0.056735, 0.172701, 0.156003
1515636914.09016, 0.014777, -0.009397, 0.104201, 0.062469, 0.178066, 0.152458
1515636914.10017, 0.016182, 0.004496, 0.095789, 0.068511, 0.18299, 0.148976
1515636914.11018, 0.020086, 0.010917, 0.080315, 0.074698, 0.186946, 0.145426
1515636914.12019, 0.030085, 0.02028, 0.065089, 0.080578, 0.189767, 0.14183
1515636914.1302, 0.033993, 0.021827, 0.067538, 0.086125, 0.191529, 0.138108
1515636914.14021, 0.031578, 0.013702, 0.071257, 0.091577, 0.192501, 0.134266
1515636914.15022, 0.026679, 0.004722, 0.073114, 0.09702, 0.192928, 0.130544
1515636914.1602, 0.021392, 0.004864, 0.072557, 0.102437, 0.193073, 0.127011
1515636914.17021, 0.034899, 0.005028, 0.061068, 0.107525, 0.192804, 0.123613
1515636914.18022, 0.050589, 0.007518, 0.054728, 0.11203, 0.19158, 0.120373
1515636914.19023, 0.056343, -0.006337, 0.050232, 0.116086, 0.189062, 0.117442
1515636914.20024, 0.059225, -0.026601, 0.040005, 0.119728, 0.185397, 0.115081
1515636914.21025, 0.05854, -0.035471, 0.029246, 0.123257, 0.18114, 0.113399
1515636914.22026, 0.054681, -0.034694, 0.0121, 0.126786, 0.176936, 0.112349
1515636914.23027, 0.048955, -0.024151, -0.001819, 0.130222, 0.173294, 0.111743
1515636914.24027, 0.040503, -0.022366, -0.017338, 0.13364, 0.170507, 0.111477
1515636914.25029, 0.042717, -0.010431, -0.023422, 0.136942, 0.168774, 0.11133
1515636914.2603, 0.032911, 0.002862, -0.008638, 0.140153, 0.167989, 0.111011
1515636914.27031, 0.012093, 0.002308, 0.001981, 0.143562, 0.167798, 0.110421
1515636914.28032, -0.004201, -0.010794, -0.001261, 0.147425, 0.167912, 0.109689
1515636914.29032, -0.015142, -0.02269, -0.013448, 0.151661, 0.168273, 0.108973
1515636914.30033, -0.036022, -0.036068, -0.023055, 0.156321, 0.168958, 0.108368
1515636914.31034, -0.061058, -0.066561, -0.047046, 0.161173, 0.169943, 0.108341
1515636914.32035, -0.065297, -0.076337, -0.079099, 0.166037, 0.171078, 0.109102
1515636914.33036, -0.051543, -0.056625, -0.109392, 0.170513, 0.172331, 0.110485
1515636914.34037, -0.033287, -0.032926, -0.126657, 0.174005, 0.173665, 0.112229
1515636914.35038, -0.025603, -0.02846, -0.140019, 0.176344, 0.174775, 0.114183
1515636914.36039, -0.014234, -0.031791, -0.141857, 0.177545, 0.175468, 0.116329
1515636914.3704, -0.000429, -0.021903, -0.136149, 0.177384, 0.175716, 0.118677
1515636914.38038, 0.007499, -0.007954, -0.123609, 0.176264, 0.175439, 0.121122
1515636914.39035, 0.005752, -0.01052, -0.109982, 0.174724, 0.174755, 0.123664
1515636914.40036, -0.004162, -0.014918, -0.105978, 0.173154, 0.173962, 0.126476
1515636914.41037, -0.026697, -0.01644, -0.111397, 0.171936, 0.173299, 0.129714
1515636914.42038, -0.040935, -0.009991, -0.131547, 0.171027, 0.172813, 0.133392
1515636914.43039, -0.050013, 0.009249, -0.154799, 0.169991, 0.172378, 0.137257
1515636914.4404, -0.057579, 0.034127, -0.160243, 0.168387, 0.171858, 0.140971
1515636914.45041, -0.067583, 0.048001, -0.15712, 0.165914, 0.171305, 0.144182
1515636914.46042, -0.074066, 0.055114, -0.140222, 0.162276, 0.170936, 0.146623
1515636914.47043, -0.069923, 0.0637, -0.10569, 0.157454, 0.170977, 0.148028
1515636914.48044, -0.066094, 0.068538, -0.065088, 0.151751, 0.171598, 0.148195
1515636914.49045, -0.065042, 0.05954, -0.018812, 0.145663, 0.172903, 0.147192
1515636914.50046, -0.073212, 0.045627, 0.025803, 0.139883, 0.174967, 0.145157
1515636914.51047, -0.068797, 0.033002, 0.056979, 0.134896, 0.177859, 0.142239
1515636914.52048, -0.063632, 0.019925, 0.081971, 0.130987, 0.181519, 0.138579
1515636914.53049, -0.055847, 0.015093, 0.103286, 0.128454, 0.185668, 0.134376
1515636914.5405, -0.041436, 0.009718, 0.112278, 0.127553, 0.190044, 0.129771
1515636914.55051, -0.020833, 0.009982, 0.107127, 0.128271, 0.194447, 0.12489
1515636914.56052, 0.003135, 0.005949, 0.091651, 0.13022, 0.198706, 0.119881
1515636914.57053, 0.02645, -0.005266, 0.073937, 0.133125, 0.202755, 0.115004
1515636914.58054, 0.042095, -0.012811, 0.0589, 0.136799, 0.206596, 0.110582
1515636914.59052, 0.05904, -0.018292, 0.037726, 0.141008, 0.210196, 0.106867
1515636914.60053, 0.065938, -0.020692, 0.014728, 0.145524, 0.213485, 0.104024
1515636914.61054, 0.062609, -0.019548, -0.007108, 0.149977, 0.216312, 0.102216
1515636914.62055, 0.056096, -0.014046, -0.032121, 0.154046, 0.218446, 0.101492
1515636914.63056, 0.044445, -0.002359, -0.051163, 0.157564, 0.219726, 0.101715
1515636914.64057, 0.019471, 0.010729, -0.067174, 0.160414, 0.220254, 0.102649
1515636914.65058, -0.002952, 0.017968, -0.081839, 0.16248, 0.220245, 0.10402
1515636914.66059, -0.019516, 0.027239, -0.098561, 0.163684, 0.219988, 0.105488
1515636914.6706, -0.026358, 0.034755, -0.110083, 0.163742, 0.219669, 0.106787
1515636914.68061, -0.026183, 0.029588, -0.107054, 0.162708, 0.219331, 0.107812
1515636914.69062, -0.025857, 0.026871, -0.083483, 0.161043, 0.219002, 0.108397
1515636914.70063, -0.021525, 0.032525, -0.052641, 0.159294, 0.21876, 0.108313
1515636914.71064, -0.01775, 0.033721, -0.02236, 0.158015, 0.218578, 0.107406
1515636914.72065, -0.022028, 0.022581, -0.002571, 0.157431, 0.218436, 0.105829
1515636914.73066, -0.016661, 0.009563, 0.003177, 0.157664, 0.218216, 0.103723
1515636914.74067, -0.00933, -0.006277, -0.005991, 0.158418, 0.217807, 0.101356
1515636914.75067, -0.003212, -0.025201, -0.018612, 0.159145, 0.217289, 0.099068
1515636914.76068, 0.004631, -0.039914, -0.029629, 0.159651, 0.216847, 0.096984
1515636914.77069, 0.013419, -0.053242, -0.045372, 0.159537, 0.216699, 0.095288
1515636914.7807, 0.024611, -0.053829, -0.054677, 0.158333, 0.216911, 0.093966
1515636914.79071, 0.029723, -0.049909, -0.045433, 0.156149, 0.217347, 0.092983
1515636914.80072, 0.019433, -0.049131, -0.039015, 0.153226, 0.217721, 0.092305
1515636914.8107, 0.015634, -0.043482, -0.02803, 0.149908, 0.217803, 0.091825
1515636914.82071, 0.016458, -0.032781, -0.017437, 0.146533, 0.217495, 0.091338
1515636914.83072, 0.015564, -0.023878, -0.010062, 0.143427, 0.216877, 0.090687
1515636914.84073, 0.010374, -0.018499, -0.006343, 0.140849, 0.216136, 0.089749
1515636914.85074, 0.010402, -0.018348, -0.007992, 0.138952, 0.215416, 0.088409
1515636914.86075, 0.008588, -0.015856, -0.016827, 0.137685, 0.214781, 0.086637
1515636914.87076, 0.004507, -0.011437, -0.025242, 0.13678, 0.214305, 0.084455
1515636914.88077, 0.001416, -0.015109, -0.035268, 0.135929, 0.214045, 0.082056
1515636914.89078, -0.001826, -0.019976, -0.036072, 0.134799, 0.213937, 0.079642
1515636914.90079, -0.000356, -0.021879, -0.037645, 0.133341, 0.213832, 0.077315
1515636914.9108, 0.010138, -0.027495, -0.043538, 0.131544, 0.213644, 0.075144
1515636914.92081, 0.022245, -0.021103, -0.03356, 0.12961, 0.213439, 0.07298
1515636914.93082, 0.028173, -0.014313, -0.022724, 0.12765, 0.213439, 0.070701
1515636914.94083, 0.036164, -0.007139, -0.016057, 0.125668, 0.213879, 0.068294
1515636914.95084, 0.03301, -0.00712, 0.000106, 0.123774, 0.215023, 0.065775
1515636914.96085, 0.021921, -0.005592, 0.014536, 0.122046, 0.217024, 0.063155
1515636914.97086, 0.017526, -0.003345, 0.027934, 0.12061, 0.219795, 0.060468
1515636914.98087, 0.012992, -0.007304, 0.039926, 0.119598, 0.223072, 0.057797
1515636914.99088, 0.008108, -0.014364, 0.044141, 0.119049, 0.226583, 0.055308
1515636915.00089, 0.003157, -0.010048, 0.049464, 0.11906, 0.230122, 0.052976
1515636915.0109, 0.003095, -0.002264, 0.04626, 0.119508, 0.233636, 0.050777
1515636915.02091, 0.002943, 0.001072, 0.048102, 0.120192, 0.237066, 0.048704
1515636915.03089, 0.007599, 0.007262, 0.051951, 0.121064, 0.240453, 0.046747
1515636915.0409, 0.01377, 0.008376, 0.052465, 0.12211, 0.243864, 0.044874
1515636915.05091, 0.014363, 0.00694, 0.04724, 0.123265, 0.247307, 0.043107
1515636915.06092, 0.01038, 0.001866, 0.044913, 0.124487, 0.250794, 0.041514
1515636915.07093, 0.007844, 0.002472, 0.035373, 0.125621, 0.25432, 0.040127
1515636915.08094, 0.008214, 0.006905, 0.022112, 0.12637, 0.257845, 0.038903
1515636915.09095, 0.020619, 0.017166, 0.015504, 0.126609, 0.261152, 0.037743
1515636915.10096, 0.026324, 0.024548, 0.014469, 0.126362, 0.264104, 0.036495
1515636915.11097, 0.029245, 0.019215, 0.019466, 0.125739, 0.266594, 0.035203
1515636915.12098, 0.017784, 0.010614, 0.04023, 0.124868, 0.268577, 0.033947
1515636915.13099, 0.018814, 0.012137, 0.039935, 0.123846, 0.270156, 0.032777
1515636915.14099, 0.014909, 0.010249, 0.051002, 0.122789, 0.271475, 0.031692
1515636915.151, 0.013304, 0.01622, 0.060706, 0.121956, 0.272701, 0.030641
1515636915.16101, 0.008051, 0.017164, 0.05875, 0.121604, 0.273949, 0.029518
1515636915.17102, 0.008935, 0.01854, 0.055188, 0.121719, 0.275396, 0.028248
1515636915.18103, 0.011101, 0.019351, 0.049418, 0.12226, 0.277143, 0.026804
1515636915.19104, 0.009201, 0.017252, 0.04469, 0.123174, 0.27926, 0.025182
1515636915.20105, 0.004574, 0.014354, 0.033603, 0.124163, 0.281754, 0.023386
1515636915.21106, 0.003063, 0.013145, 0.030939, 0.125003, 0.284563, 0.021555
1515636915.22107, 0.006093, 0.013221, 0.028504, 0.125583, 0.287505, 0.01976
1515636915.23108, 0.011776, 0.012866, 0.027531, 0.125923, 0.290319, 0.018012
1515636915.24109, 0.016515, 0.01656, 0.025871, 0.126168, 0.292774, 0.016321
1515636915.25107, 0.017091, 0.023043, 0.030885, 0.126458, 0.294796, 0.014678
1515636915.26108, 0.018419, 0.025104, 0.030021, 0.127008, 0.296552, 0.012986
1515636915.27109, 0.017639, 0.021746, 0.022735, 0.127899, 0.298307, 0.011174
1515636915.2811, 0.015385, 0.018002, 0.021695, 0.129021, 0.300297, 0.009244
1515636915.29111, 0.013381, 0.014699, 0.01534, 0.130169, 0.302638, 0.007159
1515636915.30112, 0.011268, 0.014271, 0.011162, 0.131141, 0.305308, 0.004996
1515636915.31113, 0.012144, 0.012388, 0.009707, 0.131816, 0.308103, 0.002788
1515636915.32114, 0.016061, 0.011646, 0.016744, 0.132114, 0.3108, 0.000567
1515636915.33115, 0.019027, 0.015037, 0.034602, 0.132063, 0.313161, -0.001638
1515636915.34116, 0.016707, 0.017297, 0.045555, 0.131841, 0.315104, -0.003832
1515636915.35117, 0.017441, 0.014531, 0.055174, 0.13171, 0.316625, -0.006046
1515636915.36118, 0.022705, 0.009761, 0.053744, 0.13173, 0.317835, -0.008251
1515636915.37119, 0.020253, 0.003896, 0.045475, 0.13195, 0.318873, -0.010444
1515636915.3812, 0.020632, -0.002602, 0.032939, 0.132257, 0.319905, -0.012557
1515636915.3912, 0.020319, -0.003711, 0.029492, 0.132316, 0.321051, -0.014501
1515636915.40121, 0.020897, -0.002259, 0.029288, 0.132017, 0.322308, -0.01624
1515636915.41122, 0.023228, -0.001983, 0.03147, 0.131458, 0.323549, -0.017789
1515636915.42123, 0.026077, 0.001112, 0.034283, 0.130846, 0.32464, -0.01917
1515636915.43124, 0.026596, 0.001982, 0.034056, 0.130334, 0.325558, -0.02041
1515636915.44125, 0.021458, 0.010178, 0.043126, 0.129928, 0.326414, -0.021608
1515636915.45125, 0.018145, 0.011975, 0.041975, 0.1296, 0.327378, -0.022788
1515636915.46123, 0.018148, 0.011558, 0.036013, 0.129336, 0.328468, -0.02396
1515636915.47124, 0.019205, 0.009239, 0.03333, 0.129105, 0.329597, -0.025152
1515636915.48125, 0.016636, 0.009857, 0.032546, 0.128912, 0.330589, -0.026313
1515636915.49126, 0.015658, 0.012059, 0.032319, 0.128752, 0.331352, -0.027416
1515636915.50127, 0.019696, 0.011526, 0.032249, 0.128667, 0.331886, -0.028487
1515636915.51128, 0.021251, 0.014941, 0.031749, 0.128619, 0.332222, -0.029543
1515636915.52129, 0.01872, 0.012347, 0.034746, 0.128594, 0.332448, -0.030611
1515636915.5313, 0.016858, 0.008074, 0.034675, 0.128669, 0.332641, -0.031676
1515636915.54131, 0.015359, 0.006191, 0.032509, 0.128876, 0.332844, -0.032644
1515636915.55132, 0.015844, 0.006361, 0.029914, 0.129233, 0.333089, -0.033482
1515636915.56133, 0.019997, 0.00737, 0.030316, 0.129746, 0.333349, -0.034219
1515636915.57134, 0.021069, 0.011225, 0.030126, 0.130421, 0.333586, -0.034914
1515636915.58135, 0.020527, 0.011117, 0.02837, 0.131203, 0.333762, -0.035606
1515636915.59136, 0.019584, 0.012293, 0.025212, 0.132052, 0.33386, -0.036311
1515636915.60137, 0.021728, 0.012027, 0.024048, 0.132875, 0.333885, -0.037039
1515636915.61138, 0.019241, 0.013099, 0.026315, 0.133573, 0.333825, -0.037777
1515636915.62139, 0.016345, 0.009582, 0.025909, 0.134118, 0.333688, -0.038538
1515636915.6314, 0.011761, 0.003688, 0.027849, 0.134456, 0.333457, -0.039241
1515636915.64141, 0.009962, -0.00027, 0.026829, 0.134553, 0.333128, -0.039793
1515636915.65142, 0.012397, 0.000937, 0.026009, 0.134588, 0.332677, -0.04019
1515636915.66143, 0.014164, 0.006691, 0.025107, 0.13475, 0.332243, -0.040539
1515636915.67144, 0.015975, 0.009022, 0.024064, 0.135018, 0.331965, -0.040916
1515636915.68142, 0.016691, 0.008783, 0.023185, 0.135441, 0.331922, -0.041337
1515636915.69143, 0.013342, 0.005775, 0.023868, 0.136058, 0.332065, -0.041809
1515636915.70144, 0.014634, 0.003047, 0.018959, 0.136758, 0.332294, -0.042322
1515636915.71145, 0.010736, 0.001676, 0.018681, 0.137348, 0.332539, -0.04278
1515636915.72146, 0.00867, -0.001714, 0.020313, 0.137704, 0.332682, -0.043131
1515636915.73147, 0.004838, -0.002691, 0.020869, 0.137933, 0.332665, -0.043339
1515636915.74148, 0.001818, 0.000351, 0.025739, 0.138023, 0.332525, -0.043484
1515636915.75149, 0.000163, 0.000935, 0.024112, 0.137975, 0.332385, -0.043595
1515636915.7615, 0.001895, 0.003268, 0.023139, 0.137882, 0.332319, -0.043678
1515636915.77151, -0.000322, 0.003586, 0.025934, 0.137791, 0.332348, -0.043785
1515636915.78152, -0.000222, 0.005992, 0.033807, 0.137882, 0.332407, -0.043942
1515636915.79152, -0.001208, 0.00521, 0.037407, 0.138364, 0.332404, -0.044147
1515636915.80153, -0.007066, 0.001793, 0.030414, 0.139338, 0.332356, -0.044424
1515636915.81154, -0.004953, 0.000921, 0.023968, 0.140551, 0.332305, -0.044752
1515636915.82155, -0.000368, -0.002056, 0.012703, 0.141779, 0.332239, -0.045065
1515636915.83157, 0.00375, -0.007536, 0.000973, 0.142785, 0.332091, -0.045309
1515636915.84157, 0.005867, -0.006183, -0.00233, 0.143392, 0.331763, -0.045428
1515636915.85158, 0.005303, -0.003781, -0.000881, 0.14364, 0.331189, -0.045435
1515636915.86159, 0.005239, -0.004268, -0.003618, 0.143717, 0.330368, -0.045329
1515636915.8716, 0.003023, -0.009104, -0.004729, 0.143801, 0.329369, -0.045105
1515636915.88161, 0.006982, -0.003104, -0.00286, 0.143959, 0.328421, -0.044871
1515636915.89162, 0.011042, 0.004872, 0.003797, 0.14425, 0.327756, -0.044771
1515636915.9016, 0.009284, 0.000364, 0.007515, 0.144795, 0.327491, -0.044852
1515636915.91161, 0.003005, -0.004531, 0.009326, 0.145637, 0.327575, -0.045046
1515636915.92162, 0.000942, -0.005932, 0.01021, 0.146781, 0.3279, -0.045305
1515636915.93163, 0.001855, -0.007653, 0.003754, 0.148159, 0.328355, -0.045535
1515636915.94164, 0.005904, -0.015417, -0.008845, 0.149552, 0.328922, -0.045612
1515636915.95165, 0.008307, -0.018396, -0.008789, 0.150655, 0.329595, -0.045489
1515636915.96166, 0.00901, -0.01735, -0.00151, 0.151536, 0.33025, -0.045108
1515636915.97167, 0.007906, -0.016356, 0.006667, 0.152485, 0.330785, -0.044442
1515636915.98168, 0.004139, -0.020539, 0.013581, 0.153796, 0.331234, -0.043544
1515636915.99169, -0.000207, -0.021102, 0.013542, 0.155504, 0.331768, -0.042435
1515636916.0017, -0.003321, -0.021163, 0.010137, 0.157523, 0.33251, -0.041128
1515636916.01171, -0.009825, -0.019348, -0.000949, 0.159806, 0.33351, -0.039681
1515636916.02172, -0.011344, -0.015029, -0.010047, 0.162209, 0.334755, -0.038147
1515636916.03173, -0.004736, -0.006993, -0.011196, 0.164581, 0.336139, -0.036616
1515636916.04174, 0.001468, -0.001362, -0.017866, 0.166998, 0.337563, -0.035209
1515636916.05175, 0.006621, 0.000587, -0.025963, 0.169402, 0.338997, -0.033961
1515636916.06176, 0.009698, -0.003105, -0.032865, 0.17163, 0.340438, -0.032893
1515636916.07177, 0.00923, -0.006888, -0.036738, 0.173507, 0.341913, -0.031948
1515636916.08178, 0.005397, -0.010673, -0.03626, 0.174971, 0.343436, -0.031031
1515636916.09179, 0.005664, -0.012867, -0.030372, 0.175919, 0.344995, -0.030076
1515636916.1018, 0.004009, -0.011241, -0.021141, 0.176292, 0.346593, -0.029019
1515636916.11181, 0.000216, -0.00767, -0.009263, 0.176256, 0.348184, -0.027911
1515636916.12179, -0.002035, -0.001701, 0.005418, 0.17603, 0.349649, -0.026778
1515636916.1318, -0.004303, 0.003597, 0.012057, 0.175858, 0.350903, -0.025677
1515636916.14181, -0.001716, 0.009899, 0.011034, 0.175896, 0.351879, -0.024708
1515636916.15182, -0.003836, 0.012961, 0.008415, 0.176124, 0.352604, -0.02391
1515636916.16183, -0.007671, 0.010148, 0.008009, 0.1764, 0.353216, -0.023258
1515636916.17184, -0.008481, 0.009399, 0.002015, 0.176655, 0.3538, -0.022756
1515636916.18185, -0.006701, 0.01046, -0.001598, 0.176818, 0.354427, -0.022372
1515636916.19186, -0.00591, 0.005499, -0.0036, 0.176835, 0.355142, -0.022027
1515636916.20187, -0.005132, 0.005425, -0.000344, 0.176655, 0.355925, -0.021666
1515636916.21188, -0.004932, 0.007899, 0.002096, 0.176326, 0.356709, -0.021305
1515636916.22188, -0.005818, 0.008671, 0.002346, 0.175892, 0.357386, -0.020919
1515636916.23189, -0.004273, 0.00892, 0.004984, 0.175424, 0.35788, -0.020549
1515636916.2419, -0.004892, 0.008563, 0.009581, 0.174909, 0.3582, -0.020191
1515636916.25191, -0.00645, 0.008487, 0.013624, 0.174343, 0.358379, -0.01983
1515636916.26192, -0.010634, 0.008342, 0.017666, 0.173822, 0.358453, -0.019473
1515636916.27193, -0.011439, 0.006126, 0.017489, 0.173386, 0.358416, -0.019071
1515636916.28194, -0.011865, 0.00435, 0.014512, 0.173041, 0.35823, -0.018659
1515636916.29195, -0.00937, 0.004458, 0.00607, 0.17265, 0.357939, -0.018193
1515636916.30196, -0.006489, 0.00613, 0.004774, 0.172132, 0.357557, -0.017687
1515636916.31197, -0.008702, 0.005659, 0.001061, 0.171511, 0.357152, -0.017171
1515636916.32198, -0.010163, 0.002683, 0.001497, 0.170757, 0.35681, -0.01661
1515636916.33199, -0.011893, 0.001374, 0.00519, 0.169971, 0.356553, -0.016029
1515636916.34197, -0.013287, 0.009562, 0.009464, 0.169291, 0.356416, -0.015478
1515636916.35198, -0.013189, 0.012193, 0.019433, 0.168823, 0.356439, -0.015075
1515636916.36199, -0.014238, 0.015279, 0.021947, 0.168568, 0.356654, -0.014851
1515636916.372, -0.017006, 0.012499, 0.023897, 0.168476, 0.356928, -0.014783
1515636916.38201, -0.016611, 0.010528, 0.022823, 0.168587, 0.357072, -0.014808
1515636916.39197, -0.011119, 0.006587, 0.018734, 0.168844, 0.356954, -0.014865
1515636916.40198, -0.006202, 0.003716, 0.014186, 0.169116, 0.35661, -0.014956
1515636916.41199, -0.002968, 0.002131, 0.010305, 0.169302, 0.356139, -0.015034
1515636916.422, -0.000898, -0.001282, 0.010108, 0.169443, 0.355672, -0.015078
1515636916.43201, -0.001409, -0.000822, 0.007564, 0.169511, 0.355317, -0.015033
1515636916.44202, 0.006143, 0.00049, 0.001385, 0.169383, 0.355105, -0.014911
1515636916.45203, 0.007317, 0.000804, 0.007621, 0.169064, 0.355, -0.014749
1515636916.46204, 0.005419, 0.004992, 0.008943, 0.168758, 0.355024, -0.014634
1515636916.47205, -0.005873, 0.007234, 0.014532, 0.168525, 0.355251, -0.014609
1515636916.48206, -0.01059, 0.007606, 0.01575, 0.16833, 0.355794, -0.014711
1515636916.49207, -0.009556, 0.004664, 0.013267, 0.168091, 0.356644, -0.014887
1515636916.50208, -0.004951, 0.000026, 0.008535, 0.167643, 0.357606, -0.015025
1515636916.51208, -0.003932, -0.004327, 0.010475, 0.166999, 0.358334, -0.015035
1515636916.52209, -0.000977, -0.007025, 0.014082, 0.16635, 0.358696, -0.014909
1515636916.5321, 0.003135, -0.010736, 0.010671, 0.165582, 0.358709, -0.014635
1515636916.54211, 0.000694, -0.006765, 0.018364, 0.164711, 0.358517, -0.014209
1515636916.55212, -0.002172, -0.001834, 0.030522, 0.163883, 0.358275, -0.013709
1515636916.5621, -0.011825, 0.008629, 0.054932, 0.163077, 0.358157, -0.013191
1515636916.57211, -0.029068, 0.000423, 0.101802, 0.16231, 0.35855, -0.01279
1515636916.58212, -0.03699, -0.001399, 0.090488, 0.16301, 0.359147, -0.012409
1515636916.59213, -0.018091, 0.002151, 0.045751, 0.164772, 0.359728, -0.011944
1515636916.60214, -0.00206, 0.018583, 0.015116, 0.166755, 0.36015, -0.011567
1515636916.61215, 0.006138, 0.027209, -0.015465, 0.168516, 0.360335, -0.011344
1515636916.62216, 0.010105, 0.018992, -0.045837, 0.169567, 0.360228, -0.011218
1515636916.63217, 0.016672, 0.01131, -0.051214, 0.169683, 0.359797, -0.011177
1515636916.64218, 0.02954, 0.018154, -0.024446, 0.168941, 0.359154, -0.011223
1515636916.65219, 0.048229, 0.034909, 0.026574, 0.167847, 0.35852, -0.011546
1515636916.6622, 0.044652, 0.034001, 0.077751, 0.16699, 0.35794, -0.01226
1515636916.67221, 0.007387, 0.016366, 0.132472, 0.167009, 0.357392, -0.013203
1515636916.68222, -0.013805, 0.006478, 0.164442, 0.168507, 0.356837, -0.014089
1515636916.69223, -0.012086, -0.001778, 0.163169, 0.171561, 0.356201, -0.014654
1515636916.70224, -0.00052, -0.004892, 0.142063, 0.175403, 0.355288, -0.014697
1515636916.71225, -0.004293, -0.006328, 0.141927, 0.179388, 0.353757, -0.014239
1515636916.72226, 0.047983, 0.014509, 0.099393, 0.183161, 0.35136, -0.013387
1515636916.73227, 0.060352, 0.010171, 0.086774, 0.186489, 0.348204, -0.012154
1515636916.74228, 0.067531, 0.009106, 0.077402, 0.188931, 0.344688, -0.010519
1515636916.75229, 0.067756, 0.01864, 0.086505, 0.190138, 0.341055, -0.008529
1515636916.7623, 0.065143, 0.024639, 0.110248, 0.190219, 0.33732, -0.006229
1515636916.77231, 0.063883, 0.026613, 0.138095, 0.189854, 0.333463, -0.003691
1515636916.78229, 0.063352, 0.032029, 0.167975, 0.189616, 0.32967, -0.00098
1515636916.7923, 0.067869, 0.046915, 0.193127, 0.189785, 0.32623, 0.001782
1515636916.80231, 0.07655, 0.063838, 0.219817, 0.190525, 0.323462, 0.0044
1515636916.81232, 0.083681, 0.077916, 0.23408, 0.191633, 0.321412, 0.006787
1515636916.82233, 0.093519, 0.078861, 0.222372, 0.192681, 0.319579, 0.009211
1515636916.83234, 0.097635, 0.081839, 0.19633, 0.193548, 0.316963, 0.012003
1515636916.84235, 0.093439, 0.087399, 0.163776, 0.194272, 0.312428, 0.015317
1515636916.85236, 0.090071, 0.111008, 0.12474, 0.194379, 0.305368, 0.01894
1515636916.86237, 0.092921, 0.146226, 0.096982, 0.192952, 0.296039, 0.022372
1515636916.87238, 0.107945, 0.183319, 0.100255, 0.189513, 0.285001, 0.025054
1515636916.88239, 0.109753, 0.205496, 0.129824, 0.183998, 0.272453, 0.026818
1515636916.8924, 0.118194, 0.222447, 0.170913, 0.176862, 0.258268, 0.02739
1515636916.90241, 0.117841, 0.229389, 0.231213, 0.168769, 0.242422, 0.026503
1515636916.91242, 0.105734, 0.216206, 0.303793, 0.160211, 0.225247, 0.024332
1515636916.92242, 0.082898, 0.184698, 0.38477, 0.151931, 0.20736, 0.021449
1515636916.93243, 0.058371, 0.14301, 0.441841, 0.145115, 0.189321, 0.018678
1515636916.94244, 0.030701, 0.095735, 0.448239, 0.140146, 0.17165, 0.016903
1515636916.95245, 0.018313, 0.070054, 0.419331, 0.136877, 0.154546, 0.01674
1515636916.96246, 0.027408, 0.071606, 0.381576, 0.134722, 0.137976, 0.018498
1515636916.97247, 0.058909, 0.089982, 0.314294, 0.133039, 0.121177, 0.022299
1515636916.98248, 0.092208, 0.10876, 0.248784, 0.131215, 0.103145, 0.028292
1515636916.99249, 0.115795, 0.135979, 0.179705, 0.128611, 0.083341, 0.036239
1515636917.00247, 0.1466, 0.175693, 0.110531, 0.124527, 0.061703, 0.045526
1515636917.01248, 0.140186, 0.210452, 0.057856, 0.118693, 0.038113, 0.055803
1515636917.02249, 0.108796, 0.212292, 0.041741, 0.112029, 0.013119, 0.066723
1515636917.0325, 0.052164, 0.195735, 0.047938, 0.105679, -0.012044, 0.078139
1515636917.04251, -0.01108, 0.184447, 0.057358, 0.100962, -0.035989, 0.089426
1515636917.05252, -0.074699, 0.185304, 0.062957, 0.098273, -0.05751, 0.100111
1515636917.06253, -0.103769, 0.201509, 0.059315, 0.097415, -0.076152, 0.109984
1515636917.07254, -0.108689, 0.199251, 0.03499, 0.097928, -0.092676, 0.11913
1515636917.08255, -0.107186, 0.170363, -0.040891, 0.098872, -0.109243, 0.128211
1515636917.09256, -0.08929, 0.124033, -0.133811, 0.09967, -0.128087, 0.138491
1515636917.10257, -0.063278, 0.070232, -0.229441, 0.100228, -0.149949, 0.15089
1515636917.11258, -0.075302, 0.02059, -0.322401, 0.100171, -0.173889, 0.165767
1515636917.12259, -0.110732, 0.006905, -0.394304, 0.09913, -0.198249, 0.18295
1515636917.1326, -0.149503, 0.017793, -0.444059, 0.096928, -0.221892, 0.201794
1515636917.14261, -0.189332, 0.050798, -0.454427, 0.093753, -0.244304, 0.221343
1515636917.15262, -0.210318, 0.089366, -0.458302, 0.089402, -0.265409, 0.240414
1515636917.16263, -0.221256, 0.112866, -0.433096, 0.083713, -0.285354, 0.25813
1515636917.17264, -0.227715, 0.115999, -0.384558, 0.077289, -0.304391, 0.273977
1515636917.18265, -0.221053, 0.088975, -0.31898, 0.071685, -0.322516, 0.287898
1515636917.19266, -0.219238, 0.038536, -0.279198, 0.068334, -0.339112, 0.300105
1515636917.20267, -0.234749, -0.014174, -0.275994, 0.067408, -0.353393, 0.31113
1515636917.21268, -0.242347, -0.03525, -0.279447, 0.068474, -0.365132, 0.321315
1515636917.22266, -0.239808, -0.037894, -0.294946, 0.070586, -0.374892, 0.330723
1515636917.23267, -0.231383, -0.037984, -0.309478, 0.072949, -0.383859, 0.339598
1515636917.24268, -0.228519, -0.05906, -0.328429, 0.074979, -0.392864, 0.348213
1515636917.25269, -0.222944, -0.081591, -0.358467, 0.075798, -0.402108, 0.356814
1515636917.2627, -0.21668, -0.10439, -0.389546, 0.074504, -0.411798, 0.36556
1515636917.27271, -0.178339, -0.214619, -0.5319, 0.06936, -0.424621, 0.375136
1515636917.28272, -0.062241, -0.371843, -0.596049, 0.059393, -0.44332, 0.386392
1515636917.29273, 0.004503, -0.409913, -0.39541, 0.048334, -0.46311, 0.399048
1515636917.30273, 0.065444, -0.265365, -0.276631, 0.040205, -0.479549, 0.41099
1515636917.31274, 0.087215, -0.132627, -0.255533, 0.036379, -0.490742, 0.42023
1515636917.32275, 0.035316, -0.117538, -0.306557, 0.035943, -0.495734, 0.426697
1515636917.33276, -0.042063, -0.146369, -0.341558, 0.03644, -0.495342, 0.430884
1515636917.34277, -0.097813, -0.1443, -0.255121, 0.036964, -0.490603, 0.433941
1515636917.35278, -0.125196, -0.08431, -0.124028, 0.037841, -0.48286, 0.436492
1515636917.36279, -0.128286, 0.005714, -0.015846, 0.038929, -0.474029, 0.438237
1515636917.3728, -0.136187, 0.084555, 0.062936, 0.039995, -0.465918, 0.438672
1515636917.38281, -0.148764, 0.114876, 0.123939, 0.040858, -0.45942, 0.437445
1515636917.39278, -0.15387, 0.118907, 0.175243, 0.041881, -0.454757, 0.434587
1515636917.40279, -0.148918, 0.113926, 0.216235, 0.043474, -0.451743, 0.43029
1515636917.4128, -0.126269, 0.094529, 0.230957, 0.045776, -0.45017, 0.424847
1515636917.42281, -0.087461, 0.070327, 0.226377, 0.048974, -0.450037, 0.418635
1515636917.43281, -0.049689, 0.05019, 0.199893, 0.053042, -0.451455, 0.411963
1515636917.44279, -0.000466, 0.018402, 0.140771, 0.057513, -0.454565, 0.4053
1515636917.4528, 0.063386, -0.01978, 0.039453, 0.061676, -0.459774, 0.399194
1515636917.46281, 0.121843, -0.071212, -0.067995, 0.065006, -0.467274, 0.394281
1515636917.47282, 0.158639, -0.129944, -0.162058, 0.067517, -0.476251, 0.390855
1515636917.48283, 0.162822, -0.171733, -0.222306, 0.069595, -0.484728, 0.388695
1515636917.49284, 0.153286, -0.168516, -0.254491, 0.071648, -0.490535, 0.387838
1515636917.50285, 0.157858, -0.144081, -0.290951, 0.073414, -0.492935, 0.387795
1515636917.51286, 0.152413, -0.11459, -0.268202, 0.074468, -0.492437, 0.387876
1515636917.52287, 0.121112, -0.093576, -0.20773, 0.074958, -0.489803, 0.388034
1515636917.53288, 0.073033, -0.099861, -0.149828, 0.074924, -0.485933, 0.388522
1515636917.54289, 0.038966, -0.099387, -0.072975, 0.074706, -0.481898, 0.389594
1515636917.5529, 0.026977, -0.078522, 0.00605, 0.075083, -0.478432, 0.391238
1515636917.56291, 0.010562, -0.039337, 0.08983, 0.077166, -0.475873, 0.392946
1515636917.57292, -0.020967, 0.007194, 0.075842, 0.081188, -0.474338, 0.394334
1515636917.58293, -0.025721, 0.007517, 0.07561, 0.086535, -0.473975, 0.39539
1515636917.59294, -0.046293, 0.014815, 0.055975, 0.092841, -0.474708, 0.396045
1515636917.60295, -0.109052, 0.000068, -0.072629, 0.099668, -0.476415, 0.396371
1515636917.61296, -0.102549, -0.025953, -0.132478, 0.105675, -0.478998, 0.395756
1515636917.62297, -0.082619, -0.073927, -0.129364, 0.109202, -0.481751, 0.394229
1515636917.63298, -0.077363, -0.107515, -0.105043, 0.110274, -0.483943, 0.392407
1515636917.64299, -0.028494, -0.114781, -0.073147, 0.109439, -0.484998, 0.390259
1515636917.653, -0.011852, -0.154598, 0.007338, 0.107624, -0.485022, 0.38746
1515636917.66298, -0.011292, -0.15402, 0.007704, 0.10695, -0.484369, 0.384545
1515636917.67299, -0.011072, -0.186368, 0.124756, 0.107761, -0.483506, 0.381577
1515636917.683, -0.032428, -0.193636, 0.16841, 0.109806, -0.483908, 0.378661
1515636917.69301, -0.049674, -0.21497, 0.173582, 0.113015, -0.48731, 0.375701
1515636917.70302, -0.073907, -0.212201, 0.136374, 0.118115, -0.493425, 0.373569
1515636917.71303, -0.08212, -0.209006, 0.052686, 0.124225, -0.501127, 0.372116
1515636917.72304, -0.050039, -0.172676, 0.017872, 0.129828, -0.51011, 0.370969
1515636917.73305, -0.024261, -0.164486, 0.018719, 0.134169, -0.519951, 0.369985
1515636917.74306, -0.031516, -0.179713, -0.010095, 0.13806, -0.529859, 0.369463
1515636917.75307, -0.029084, -0.173245, -0.056957, 0.141452, -0.539491, 0.369536
1515636917.76308, -0.030017, -0.198329, -0.056395, 0.143867, -0.548602, 0.370071
1515636917.77309, -0.025284, -0.229495, -0.025741, 0.146117, -0.556912, 0.370881
1515636917.78309, -0.011373, -0.237929, -0.075027, 0.149903, -0.564023, 0.372227
1515636917.7931, -0.017824, -0.168738, -0.219406, 0.154955, -0.569331, 0.374458
1515636917.80311, -0.072682, -0.172594, -0.23439, 0.15826, -0.573262, 0.376633
1515636917.81312, -0.083685, -0.20646, -0.164883, 0.157947, -0.576288, 0.378126
1515636917.82313, -0.09646, -0.186289, -0.171921, 0.155049, -0.578893, 0.379117
1515636917.83314, -0.138363, -0.151464, -0.277929, 0.149539, -0.580786, 0.380578
1515636917.84315, -0.138432, -0.159289, -0.331446, 0.13781, -0.582699, 0.382081
1515636917.85316, -0.112067, -0.167725, -0.143654, 0.117429, -0.584507, 0.382016
1515636917.86317, -0.061272, -0.186129, 0.059992, 0.092531, -0.585297, 0.380471
1515636917.87318, 0.125334, -0.05732, 0.891418, 0.06982, -0.585249, 0.378055
1515636917.88316, 0.034324, -0.03595, 0.601511, 0.064989, -0.583227, 0.372552
1515636917.89317, 0.010832, -0.069658, 0.119665, 0.072656, -0.585846, 0.367678
1515636917.90318, -0.055785, -0.183348, -0.036198, 0.081809, -0.597405, 0.364398
1515636917.91319, -0.075575, -0.235677, -0.240442, 0.088307, -0.613166, 0.361471
1515636917.9232, -0.068346, -0.191939, -0.30833, 0.089707, -0.62939, 0.358334
1515636917.93321, -0.0415, -0.159932, -0.350931, 0.087129, -0.645117, 0.354429
1515636917.94322, -0.049255, -0.204889, -0.390359, 0.082274, -0.659331, 0.350407
1515636917.95323, -0.04191, -0.221396, -0.361359, 0.075782, -0.670788, 0.345841
1515636917.96324, -0.027893, -0.204875, -0.345229, 0.069185, -0.679218, 0.340526
1515636917.97325, -0.014492, -0.203221, -0.335612, 0.063525, -0.685422, 0.335197
1515636917.98326, -0.028381, -0.196325, -0.334827, 0.059137, -0.690123, 0.33044
1515636917.99327, -0.044571, -0.180745, -0.348981, 0.055465, -0.693888, 0.326364
1515636918.00328, -0.049475, -0.156796, -0.366621, 0.051799, -0.697177, 0.322818
1515636918.01329, -0.046912, -0.106911, -0.359214, 0.047405, -0.699922, 0.319594
1515636918.0233, -0.045124, -0.065731, -0.334463, 0.041709, -0.702163, 0.316205
1515636918.03331, -0.035588, -0.022433, -0.294678, 0.03452, -0.704531, 0.312433
1515636918.04332, -0.029472, 0.03502, -0.268804, 0.025877, -0.707715, 0.308436
1515636918.05333, -0.046031, 0.09982, -0.24209, 0.015319, -0.71247, 0.303945
1515636918.06334, -0.05801, 0.177694, -0.205558, 0.002246, -0.71897, 0.298453
1515636918.07335, -0.095419, 0.273604, -0.13814, -0.013818, -0.726976, 0.291024
1515636918.08336, -0.142717, 0.342656, -0.076054, -0.032945, -0.736032, 0.280977
1515636918.09337, -0.07695, 0.290904, 0.085281, -0.055187, -0.745929, 0.267231
1515636918.10335, 0.048068, 0.186885, 0.158762, -0.078011, -0.755382, 0.249887
1515636918.11336, 0.108089, 0.164981, 0.113433, -0.098594, -0.764973, 0.231719
1515636918.12337, 0.14953, 0.09341, 0.113152, -0.116629, -0.775121, 0.214789
1515636918.13338, 0.180552, 0.055516, 0.135415, -0.132025, -0.785026, 0.199914
1515636918.14339, 0.130595, 0.008356, 0.217863, -0.143964, -0.793142, 0.187361
1515636918.1534, 0.077397, -0.017123, 0.215663, -0.151242, -0.798305, 0.177549
1515636918.1634, 0.057688, -0.008011, 0.296083, -0.155951, -0.80084, 0.168908
1515636918.17341, 0.053495, -0.013411, 0.340827, -0.159498, -0.801189, 0.159349
1515636918.18343, 0.064405, -0.025905, 0.353894, -0.162396, -0.800725, 0.149065
1515636918.19344, 0.0646, -0.013115, 0.319335, -0.165479, -0.800851, 0.138602
1515636918.20344, 0.033413, -0.027493, 0.320362, -0.170134, -0.80314, 0.128257
1515636918.21345, 0.019719, -0.002704, 0.291827, -0.177158, -0.807973, 0.118711
1515636918.22346, -0.005513, 0.0544, 0.260913, -0.188333, -0.815637, 0.109558
1515636918.23347, -0.080476, 0.074517, 0.28043, -0.204764, -0.825858, 0.100503
1515636918.24348, -0.101475, 0.118992, 0.332962, -0.226301, -0.837713, 0.090946
1515636918.25349, -0.102191, 0.118426, 0.336933, -0.251965, -0.851247, 0.079438
1515636918.2635, -0.079884, 0.121717, 0.277811, -0.280648, -0.86705, 0.066423
1515636918.27351, -0.070498, 0.12371, 0.243542, -0.312439, -0.884958, 0.052395
1515636918.28352, -0.058036, 0.109217, 0.218179, -0.347008, -0.904216, 0.037469
1515636918.29353, -0.017273, 0.074285, 0.164705, -0.383837, -0.924804, 0.021
1515636918.30354, 0.028305, 0.030001, 0.090821, -0.422566, -0.94709, 0.002465
1515636918.31355, 0.081399, -0.026319, -0.03427, -0.462138, -0.970679, -0.017766
1515636918.32353, 0.117259, -0.055577, -0.130316, -0.502373, -0.994451, -0.0398
1515636918.33354, 0.138524, -0.037026, -0.230043, -0.540962, -1.017086, -0.062115
1515636918.34355, 0.11196, -0.050694, -0.29808, -0.574744, -1.036687, -0.081671
1515636918.35356, 0.07214, -0.038152, -0.343535, -0.600395, -1.05227, -0.095491
1515636918.36357, 0.013686, -0.035443, -0.365899, -0.616334, -1.063981, -0.101318
1515636918.37358, -0.060181, -0.109794, -0.304559, -0.624377, -1.072206, -0.099353
1515636918.38359, -0.115477, -0.077537, -0.146623, -0.62963, -1.077721, -0.093792
1515636918.39357, -0.143862, -0.04387, 0.000121, -0.633494, -1.081461, -0.087476
1515636918.40358, -0.142519, -0.035559, 0.055207, -0.637002, -1.084336, -0.082574
1515636918.41359, -0.127236, -0.050263, 0.088645, -0.642271, -1.08727, -0.08076
1515636918.4236, -0.094478, -0.062208, 0.104903, -0.650342, -1.091152, -0.082213
1515636918.43361, -0.069095, -0.089948, 0.107922, -0.661555, -1.09647, -0.086954
1515636918.44362, -0.048081, -0.114649, 0.091097, -0.675075, -1.103223, -0.094348
1515636918.45363, -0.036498, -0.146374, 0.020694, -0.689746, -1.111109, -0.103345
1515636918.46364, -0.039042, -0.162856, -0.042545, -0.705246, -1.119788, -0.112994
1515636918.47365, -0.058012, -0.174664, -0.067117, -0.722135, -1.128616, -0.123286
1515636918.48366, -0.074156, -0.103241, -0.07794, -0.740242, -1.13686, -0.134602
1515636918.49367, -0.080886, -0.068591, -0.094866, -0.756351, -1.144183, -0.145071
1515636918.50368, -0.076887, -0.090539, -0.13801, -0.768315, -1.150361, -0.152751
1515636918.51369, -0.097332, -0.14094, -0.13749, -0.778469, -1.155289, -0.15897
1515636918.5237, -0.096468, -0.120412, -0.102055, -0.78775, -1.159341, -0.164591
1515636918.53371, -0.098682, -0.111725, -0.081389, -0.795447, -1.162622, -0.169206
1515636918.54368, -0.097577, -0.09696, -0.07841, -0.802665, -1.165568, -0.17353
1515636918.55369, -0.095792, -0.074997, -0.074738, -0.810739, -1.16862, -0.178575
1515636918.5637, -0.087618, -0.063409, -0.066447, -0.820189, -1.171419, -0.184987
1515636918.57371, -0.05148, -0.072733, -0.063296, -0.830825, -1.173783, -0.192732
1515636918.58372, -0.019309, -0.131713, -0.082303, -0.844025, -1.175853, -0.202904
1515636918.59373, -0.01826, -0.0787, -0.091299, -0.861056, -1.178268, -0.216463
1515636918.60374, 0.010342, -0.017498, -0.116107, -0.878592, -1.181677, -0.230455
1515636918.61375, -0.0133, -0.01817, -0.136902, -0.89508, -1.185762, -0.242406
1515636918.62376, -0.048107, 0.010773, -0.160187, -0.906862, -1.190797, -0.248531
1515636918.63377, -0.086783, 0.015193, -0.197566, -0.912119, -1.196611, -0.247401
1515636918.64378, -0.146284, 0.033027, -0.185319, -0.915581, -1.202086, -0.242699
1515636918.65379, -0.175324, 0.089725, -0.148333, -0.918643, -1.206654, -0.237004
1515636918.6638, -0.183523, 0.076198, -0.159022, -0.921211, -1.210724, -0.230872
1515636918.67381, -0.191863, 0.094423, -0.173376, -0.924257, -1.214582, -0.225093
1515636918.68382, -0.203631, 0.133182, -0.162879, -0.92735, -1.218095, -0.218984
1515636918.69383, -0.219718, 0.157425, -0.146868, -0.930406, -1.220986, -0.212811
1515636918.70384, -0.19653, 0.159682, -0.181262, -0.932757, -1.223268, -0.206052
1515636918.71385, -0.166667, 0.166413, -0.203407, -0.934895, -1.225149, -0.198189
1515636918.72386, -0.168035, 0.137994, -0.14807, -0.937099, -1.226027, -0.189075
1515636918.73387, -0.187981, 0.228498, -0.083037, -0.935798, -1.225022, -0.176732
1515636918.74388, -0.127574, 0.287824, -0.04591, -0.925826, -1.223092, -0.157954
1515636918.75389, -0.125382, 0.216451, 0.04491, -0.911705, -1.22075, -0.136176
1515636918.76387, -0.150351, 0.234052, 0.123761, -0.896057, -1.218376, -0.114068
1515636918.77388, -0.155029, 0.286897, 0.158004, -0.880461, -1.216119, -0.093133
1515636918.78389, -0.175598, 0.304907, 0.172533, -0.867927, -1.21422, -0.076467
1515636918.7939, -0.188375, 0.294631, 0.167151, -0.859679, -1.212453, -0.065417
1515636918.80391, -0.194021, 0.246884, 0.13989, -0.85528, -1.210117, -0.059577
1515636918.81392, -0.172323, 0.172392, 0.094161, -0.853557, -1.206368, -0.057747
1515636918.82393, -0.118037, 0.086784, 0.034549, -0.854102, -1.201071, -0.058901
1515636918.83394, -0.022675, 0.024707, 0.002368, -0.857777, -1.194841, -0.06345
1515636918.84395, 0.075624, -0.029338, -0.048425, -0.863502, -1.188201, -0.071023
1515636918.85396, 0.161094, -0.075197, -0.086736, -0.868386, -1.180647, -0.078653
1515636918.86397, 0.186655, -0.160994, -0.111513, -0.874566, -1.171081, -0.085881
1515636918.87398, 0.225395, -0.06006, -0.124874, -0.881526, -1.160746, -0.092078
1515636918.88399, 0.291547, 0.019253, -0.095965, -0.887991, -1.150723, -0.095634
1515636918.894, 0.319296, -0.002172, -0.08794, -0.891164, -1.14103, -0.094698
1515636918.90401, 0.28023, -0.082178, -0.08517, -0.892759, -1.131041, -0.090918
1515636918.91402, 0.241002, -0.026333, -0.086503, -0.892217, -1.120974, -0.084252
1515636918.92403, 0.200134, -0.024723, -0.067868, -0.888757, -1.110608, -0.074054
1515636918.93404, 0.183819, -0.025182, -0.035142, -0.881354, -1.099737, -0.060146
1515636918.94404, 0.157357, -0.004405, -0.015246, -0.871172, -1.088772, -0.043681
1515636918.95405, 0.12133, 0.002319, 0.009102, -0.860009, -1.078386, -0.02594
1515636918.96406, 0.066149, 0.024803, 0.047403, -0.849542, -1.068803, -0.008477
1515636918.97407, 0.003486, 0.045963, 0.074477, -0.841287, -1.060097, 0.007043
1515636918.98408, -0.046443, 0.041972, 0.117596, -0.836002, -1.051994, 0.019279
1515636918.99406, -0.07594, 0.025216, 0.13103, -0.832879, -1.0439, 0.0279
1515636919.00407, -0.070907, -0.002928, 0.107595, -0.8311, -1.035267, 0.033399
1515636919.01408, -0.059655, -0.045357, 0.083742, -0.830762, -1.025941, 0.03608
1515636919.02409, -0.029548, -0.095899, 0.094107, -0.832012, -1.016223, 0.036291
1515636919.0341, 0.010226, -0.126845, 0.10523, -0.834339, -1.006537, 0.034673
1515636919.04411, 0.046382, -0.170335, 0.108176, -0.837277, -0.997137, 0.032003
1515636919.05412, 0.074822, -0.204718, 0.12459, -0.840902, -0.988296, 0.028912
1515636919.06413, 0.100289, -0.23603, 0.181438, -0.84455, -0.980246, 0.02598
1515636919.07414, 0.123598, -0.23536, 0.215863, -0.846805, -0.972971, 0.023252
1515636919.08415, 0.125527, -0.234381, 0.219625, -0.846803, -0.966142, 0.020966
1515636919.09416, 0.12541, -0.226837, 0.205738, -0.845094, -0.959692, 0.019227
1515636919.10417, 0.100299, -0.202416, 0.200107, -0.842898, -0.953961, 0.017296
1515636919.11418, 0.076029, -0.190311, 0.189029, -0.841133, -0.948983, 0.014614
1515636919.12419, 0.083653, -0.192093, 0.18866, -0.840338, -0.944694, 0.011132
1515636919.1342, 0.114956, -0.200428, 0.201416, -0.84066, -0.941324, 0.007028
1515636919.14421, 0.149045, -0.195125, 0.230204, -0.842318, -0.939187, 0.002231
1515636919.15422, 0.182691, -0.1898, 0.269808, -0.844979, -0.93849, -0.00356
1515636919.16423, 0.194637, -0.188705, 0.281879, -0.847861, -0.939273, -0.010463
1515636919.17424, 0.193949, -0.177346, 0.25505, -0.850635, -0.941383, -0.01887
1515636919.18425, 0.200487, -0.173655, 0.166124, -0.852937, -0.944737, -0.028749
1515636919.19426, 0.18743, -0.181869, -0.002569, -0.855479, -0.949291, -0.039676
1515636919.20427, 0.164529, -0.185314, -0.201677, -0.860124, -0.955339, -0.051284
1515636919.21425, 0.145023, -0.217282, -0.356395, -0.867802, -0.962912, -0.062507
1515636919.22426, 0.113764, -0.299552, -0.44814, -0.881117, -0.972237, -0.073882
1515636919.23427, 0.027996, -0.191274, -0.455225, -0.898366, -0.983594, -0.085148
1515636919.24428, -0.040551, -0.048426, -0.485816, -0.912919, -0.994796, -0.092804
1515636919.25429, -0.161605, 0.001393, -0.507774, -0.919609, -1.002776, -0.093895
1515636919.2643, -0.164026, -0.00046, -0.509405, -0.919291, -1.00623, -0.08824
1515636919.27431, -0.437484, 0.085781, -0.498387, -0.919272, -1.00666, -0.080149
1515636919.28432, -0.490378, 0.208398, -0.315406, -0.927241, -1.006522, -0.075531
1515636919.29433, -0.478118, 0.28898, -0.167395, -0.943247, -1.007092, -0.07762
1515636919.30434, -0.427236, 0.289365, -0.132593, -0.96292, -1.007144, -0.08496
1515636919.31434, -0.338858, 0.241639, -0.136695, -0.980561, -1.005738, -0.093987
1515636919.32435, -0.246217, 0.259963, -0.159889, -0.994828, -1.003353, -0.104261
1515636919.33436, -0.196519, 0.320377, -0.280939, -1.007835, -1.00119, -0.117079
1515636919.34437, -0.180427, 0.268544, -0.527665, -1.024501, -1.001669, -0.130842
1515636919.35438, -0.141093, 0.198481, -0.546691, -1.049525, -1.003816, -0.143677
1515636919.36439, -0.146506, 0.22746, -0.236955, -1.07485, -1.002166, -0.152102
1515636919.3744, -0.123138, 0.359717, 0.084275, -1.085351, -0.995749, -0.153599
1515636919.38441, 0.004967, 0.455456, 0.216065, -1.077046, -0.9866, -0.151519
1515636919.39442, 0.114475, 0.350948, 0.076985, -1.059766, -0.978243, -0.150881
1515636919.40442, 0.162307, 0.214532, -0.0288, -1.045594, -0.97267, -0.152777
1515636919.41443, 0.055216, 0.098043, -0.054904, -1.038566, -0.96927, -0.153266
1515636919.42444, -0.02007, 0.127505, 0.061062, -1.041916, -0.966585, -0.151041
1515636919.43442, 0.077439, 0.205277, 0.370842, -1.053754, -0.963184, -0.148662
1515636919.44443, 0.244843, 0.230787, 0.609776, -1.070802, -0.958529, -0.150199
1515636919.45444, 0.340112, 0.230453, 0.745136, -1.087688, -0.95255, -0.15526
1515636919.46445, 0.536183, 0.101251, 0.831496, -1.102594, -0.945852, -0.16233
1515636919.47446, 0.661112, -0.063756, 0.899554, -1.116842, -0.937783, -0.171844
1515636919.48447, 0.6754, -0.048814, 0.81306, -1.12595, -0.929773, -0.181301
1515636919.49448, 0.682731, 0.052856, 0.58017, -1.132933, -0.923799, -0.193793
1515636919.50449, 0.641277, 0.093828, 0.271355, -1.1504, -0.925114, -0.222215
1515636919.5145, 0.610021, 0.066908, 0.206336, -1.1827, -0.935872, -0.264989
1515636919.52451, 0.562039, 0.092996, 0.153621, -1.221409, -0.951034, -0.30886
1515636919.53452, 0.448047, 0.136123, -0.031301, -1.259989, -0.967234, -0.347639
1515636919.54453, 0.359876, 0.055129, -0.187238, -1.296168, -0.982266, -0.381097
1515636919.55454, 0.248329, -0.023743, -0.353722, -1.328953, -0.995957, -0.408268
1515636919.56455, 0.145859, 0.00706, -0.481089, -1.356806, -1.008607, -0.426008
1515636919.57456, 0.075297, -0.000018, -0.517617, -1.37951, -1.019955, -0.43242
1515636919.58457, -0.019866, -0.052756, -0.320465, -1.398518, -1.029659, -0.430782
1515636919.59458, -0.082945, -0.029249, -0.09254, -1.41196, -1.037874, -0.42354
1515636919.60459, -0.146981, -0.023158, 0.043862, -1.420862, -1.044725, -0.413482
1515636919.6146, -0.191674, -0.016023, 0.098028, -1.428226, -1.050479, -0.403724
1515636919.62461, -0.219125, -0.012704, 0.116614, -1.436544, -1.055271, -0.396586
1515636919.63461, -0.23017, -0.021773, 0.125925, -1.44567, -1.058979, -0.392477
1515636919.64462, -0.219531, -0.043295, 0.074058, -1.454763, -1.06146, -0.391071
1515636919.6546, -0.173821, -0.085018, -0.011653, -1.463098, -1.063006, -0.391134
1515636919.66461, -0.120241, -0.120165, -0.106624, -1.470389, -1.064212, -0.391293
1515636919.67462, -0.084169, -0.138979, -0.183082, -1.476487, -1.065471, -0.390232
1515636919.68463, -0.053179, -0.153068, -0.225867, -1.48063, -1.066839, -0.386415
1515636919.69464, -0.033013, -0.156414, -0.220267, -1.481958, -1.068241, -0.378815
1515636919.70465, -0.024906, -0.131129, -0.189907, -1.480525, -1.069475, -0.367848
1515636919.71466, -0.015882, -0.098667, -0.136284, -1.477028, -1.070287, -0.354658
1515636919.72467, -0.003218, -0.084574, -0.071967, -1.472688, -1.070618, -0.341088
1515636919.73468, 0.028926, -0.061606, -0.029477, -1.468324, -1.070578, -0.328402
1515636919.74469, 0.057267, -0.049223, -0.029885, -1.464844, -1.070338, -0.31714
1515636919.7547, 0.091442, -0.076894, -0.023071, -1.462649, -1.070513, -0.307649
1515636919.76471, 0.13525, -0.065551, -0.059868, -1.462242, -1.071519, -0.300004
1515636919.77472, 0.171574, -0.080997, -0.072974, -1.462535, -1.073572, -0.292941
1515636919.78473, 0.198008, -0.059803, -0.153211, -1.463824, -1.076555, -0.285927
1515636919.79474, 0.190811, -0.06434, -0.173528, -1.465365, -1.080311, -0.277535
1515636919.80475, 0.163021, -0.063186, -0.227223, -1.467111, -1.084877, -0.2673
1515636919.81476, 0.12316, -0.048565, -0.155887, -1.468264, -1.089728, -0.255715
1515636919.82477, 0.089041, 0.028222, -0.161394, -1.468438, -1.094888, -0.239991
1515636919.83478, -0.025923, -0.020787, -0.108457, -1.469805, -1.100477, -0.222523
1515636919.84479, -0.128604, -0.009991, -0.056596, -1.472428, -1.106351, -0.204186
1515636919.8548, -0.189654, 0.042584, 0.016825, -1.47479, -1.111192, -0.18533
1515636919.86481, -0.264517, 0.09788, 0.085331, -1.475178, -1.114615, -0.167002
1515636919.87482, -0.334235, 0.087217, 0.071879, -1.475171, -1.117073, -0.150594
1515636919.8848, -0.395384, 0.0568, 0.035089, -1.475681, -1.118587, -0.136281
1515636919.89481, -0.439631, 0.033604, -0.024292, -1.477361, -1.119256, -0.123994
1515636919.90482, -0.454551, 0.029763, -0.095136, -1.479926, -1.118653, -0.112667
1515636919.91483, -0.441269, -0.005645, -0.132496, -1.482202, -1.116648, -0.101004
1515636919.92484, -0.400605, -0.043044, -0.147646, -1.48296, -1.11339, -0.088209
1515636919.93485, -0.347997, -0.062728, -0.155703, -1.481431, -1.109021, -0.073647
1515636919.94486, -0.28216, -0.052761, -0.219581, -1.47993, -1.103938, -0.05958
1515636919.95487, -0.166515, 0.021593, -0.217607, -1.475075, -1.098243, -0.043716
1515636919.96488, -0.084254, 0.034775, -0.129079, -1.460349, -1.091884, -0.020061
1515636919.97489, -0.073782, -0.006668, -0.066437, -1.439589, -1.085303, 0.007651
1515636919.9849, -0.043028, 0.056183, -0.004208, -1.417534, -1.078674, 0.035292
1515636919.99491, -0.00241, 0.082608, 0.081302, -1.394868, -1.07207, 0.062402
1515636920.00492, 0.023464, 0.086278, 0.133294, -1.371341, -1.065583, 0.088922
1515636920.01492, 0.092978, 0.135797, 0.146343, -1.347378, -1.059274, 0.114462
1515636920.02494, 0.174229, 0.19496, 0.198292, -1.322864, -1.05328, 0.138117
1515636920.03494, 0.198095, 0.208986, 0.246644, -1.297701, -1.048421, 0.159981
1515636920.04495, 0.141541, 0.292716, 0.148991, -1.273819, -1.0453, 0.17848
1515636920.05496, 0.083883, 0.329438, 0.106019, -1.253959, -1.043581, 0.191278
1515636920.06497, 0.082341, 0.33011, 0.114206, -1.237577, -1.042247, 0.199042
1515636920.07498, 0.09488, 0.378958, -0.042849, -1.22352, -1.03958, 0.204098
1515636920.08499, 0.210221, 0.422099, -0.05444, -1.211754, -1.033936, 0.206499
1515636920.095, 0.371731, 0.423189, -0.105644, -1.201477, -1.025186, 0.205164
1515636920.10498, 0.551576, 0.336109, -0.151966, -1.191418, -1.014167, 0.201464
1515636920.11499, 0.698177, 0.212285, -0.264543, -1.179651, -1.002407, 0.195425
1515636920.125, 0.789401, 0.165825, -0.518967, -1.160818, -0.992137, 0.193861
1515636920.13501, 0.664431, 0.117017, -0.717773, -1.134795, -0.983673, 0.204381
1515636920.14502, 0.474879, 0.05242, -0.664661, -1.106127, -0.976016, 0.229617
1515636920.15503, 0.325888, 0.093845, -0.494154, -1.080577, -0.969112, 0.263601
1515636920.16504, 0.21273, 0.174992, -0.34705, -1.062498, -0.963632, 0.299936
1515636920.17505, 0.134228, 0.166432, -0.199428, -1.05367, -0.959154, 0.334181
1515636920.18506, 0.074903, 0.123094, -0.034641, -1.052255, -0.954286, 0.364943
1515636920.19507, 0.03416, 0.055801, 0.104915, -1.053899, -0.948141, 0.39269
1515636920.20508, 0.010793, -0.016174, 0.184805, -1.055783, -0.940825, 0.417757
1515636920.21509, 0.016854, -0.011438, 0.187173, -1.057336, -0.932829, 0.439946
1515636920.2251, -0.00982, -0.124736, 0.24822, -1.058406, -0.924273, 0.459519
1515636920.23511, 0.00492, -0.184911, 0.255936, -1.058965, -0.915424, 0.477389
1515636920.24512, 0.036655, -0.221048, 0.266696, -1.05947, -0.90699, 0.493933
1515636920.25513, 0.090341, -0.238996, 0.296609, -1.060028, -0.899478, 0.508983
1515636920.26514, 0.158856, -0.243216, 0.311675, -1.059585, -0.892823, 0.522786
1515636920.27515, 0.222608, -0.256328, 0.27089, -1.056394, -0.886722, 0.536067
1515636920.28516, 0.276351, -0.281488, 0.135932, -1.049779, -0.881042, 0.549356
1515636920.29517, 0.310426, -0.308733, -0.020803, -1.039994, -0.875939, 0.56385
1515636920.30518, 0.311052, -0.298693, -0.070914, -1.029223, -0.872064, 0.580145
1515636920.31519, 0.29019, -0.26188, -0.049816, -1.020411, -0.870036, 0.596561
1515636920.3252, 0.280408, -0.212596, 0.020006, -1.015011, -0.870275, 0.611985
1515636920.33518, 0.249206, -0.183432, 0.092732, -1.012578, -0.872686, 0.625896
1515636920.34519, 0.201915, -0.154384, 0.150518, -1.011986, -0.877001, 0.638398
1515636920.3552, 0.146707, -0.110656, 0.201163, -1.012412, -0.882898, 0.649174
1515636920.36521, 0.091914, -0.066676, 0.237642, -1.013283, -0.88977, 0.657855
1515636920.37522, 0.061751, -0.039078, 0.24571, -1.01406, -0.89696, 0.664206
1515636920.38523, 0.051988, -0.030833, 0.222174, -1.014101, -0.903926, 0.668108
1515636920.39524, 0.028032, -0.047474, 0.153647, -1.012612, -0.91048, 0.669748
1515636920.40521, -0.025038, -0.066176, 0.018322, -1.009017, -0.916816, 0.66964
1515636920.41521, -0.083079, -0.08628, -0.148323, -1.003963, -0.923228, 0.668409
1515636920.42522, -0.126393, -0.090122, -0.386705, -0.999103, -0.930083, 0.66552
1515636920.43523, -0.128786, -0.087885, -0.626388, -0.99722, -0.93774, 0.659745
1515636920.44524, -0.120695, -0.072585, -0.749072, -0.99961, -0.945813, 0.651966
1515636920.45525, -0.091826, -0.092156, -0.779006, -1.003362, -0.952748, 0.645987
1515636920.46526, -0.033044, -0.104503, -0.704219, -1.005798, -0.957137, 0.644876
1515636920.47527, 0.033138, -0.114647, -0.554252, -1.005696, -0.958564, 0.649212
1515636920.48528, 0.049801, -0.000026, -0.479894, -1.001366, -0.957508, 0.659136
1515636920.49529, -0.005288, 0.150632, -0.487162, -0.994441, -0.954451, 0.673176
1515636920.5053, 0.014822, 0.12048, -0.438153, -0.992074, -0.949665, 0.686592
1515636920.51531, 0.151631, 0.085765, -0.316568, -0.996995, -0.945041, 0.697146
1515636920.52532, 0.158303, 0.109163, -0.277417, -1.00711, -0.943209, 0.705581
1515636920.53533, 0.129995, 0.214838, -0.285117, -1.022296, -0.944991, 0.71321
1515636920.54534, 0.124668, 0.273906, -0.145638, -1.045455, -0.950243, 0.719351
1515636920.55532, 0.05364, 0.244456, 0.028196, -1.072763, -0.957578, 0.724088
1515636920.56533, -0.013865, 0.251077, 0.160383, -1.094496, -0.964588, 0.730419
1515636920.57534, -0.081504, 0.293572, 0.179669, -1.102904, -0.969292, 0.74069
1515636920.58535, -0.138746, 0.350859, 0.10938, -1.095762, -0.970605, 0.755247
1515636920.59536, -0.086119, 0.328099, -0.083637, -1.078588, -0.968894, 0.772507
1515636920.60537, 0.06348, 0.290093, -0.091619, -1.062753, -0.965608, 0.788121
1515636920.61538, 0.13942, 0.177448, 0.037834, -1.050965, -0.962165, 0.80156
1515636920.62539, 0.084026, 0.080329, 0.010215, -1.041851, -0.959974, 0.816581
1515636920.6354, 0.107319, 0.123792, 0.072901, -1.042742, -0.959378, 0.833206
1515636920.64541, 0.231411, 0.149903, 0.39025, -1.057095, -0.959638, 0.847944
1515636920.65542, 0.371808, 0.147372, 0.655974, -1.07869, -0.961019, 0.858488
1515636920.66543, 0.501044, 0.121541, 0.839366, -1.100629, -0.963739, 0.863842
1515636920.67544, 0.541685, 0.062732, 0.868007, -1.116022, -0.967793, 0.865311
1515636920.68545, 0.546033, 0.029072, 0.726513, -1.121458, -0.973464, 0.865007
1515636920.69546, 0.489195, 0.00922, 0.481769, -1.119415, -0.981241, 0.863699
1515636920.70547, 0.375798, -0.00787, 0.278579, -1.115133, -0.991615, 0.861235
1515636920.71548, 0.24485, 0.016962, 0.091507, -1.112457, -1.004299, 0.857359
1515636920.72549, 0.079486, 0.010149, -0.153268, -1.115825, -1.019217, 0.850623
1515636920.7355, -0.033662, 0.023245, -0.262036, -1.131013, -1.036547, 0.838701
1515636920.74551, -0.0993, 0.046831, -0.187769, -1.154214, -1.053181, 0.82629
1515636920.75552, -0.1537, -0.008456, -0.132559, -1.17586, -1.066451, 0.81952
1515636920.76553, -0.176517, -0.075085, -0.116985, -1.192507, -1.076571, 0.817466
1515636920.77554, -0.181227, -0.095018, -0.127631, -1.206563, -1.084849, 0.816813
1515636920.78552, -0.160945, -0.10778, -0.113894, -1.220638, -1.091934, 0.816348
1515636920.79552, -0.134971, -0.131933, -0.031503, -1.235778, -1.098193, 0.816618
1515636920.80553, -0.137773, -0.145291, 0.031037, -1.251039, -1.104412, 0.817304
1515636920.81554, -0.157501, -0.132529, 0.033748, -1.266095, -1.110959, 0.816638
1515636920.82555, -0.172713, -0.126303, 0.008445, -1.281002, -1.117185, 0.813569
1515636920.83556, -0.176934, -0.136886, -0.027282, -1.294404, -1.122456, 0.80905
1515636920.84557, -0.149974, -0.145703, -0.060279, -1.304289, -1.126374, 0.805414
1515636920.85558, -0.111537, -0.174712, -0.092833, -1.310316, -1.129227, 0.803936
1515636920.86559, -0.093039, -0.168767, -0.122519, -1.314407, -1.132069, 0.803268
1515636920.8756, -0.08742, -0.158216, -0.148745, -1.317993, -1.135443, 0.802692
1515636920.88561, -0.096664, -0.143409, -0.155235, -1.320473, -1.139242, 0.803346
1515636920.89562, -0.116621, -0.111769, -0.170364, -1.319918, -1.143178, 0.807104
1515636920.90563, -0.142815, -0.058438, -0.185236, -1.315742, -1.14687, 0.814445
1515636920.91564, -0.14957, -0.027153, -0.187525, -1.308822, -1.149798, 0.824501
1515636920.92565, -0.159869, -0.055167, -0.161296, -1.3011, -1.151404, 0.835979
1515636920.93566, -0.143234, 0.011134, -0.125334, -1.292229, -1.152076, 0.848433
1515636920.94567, -0.103296, -0.028453, -0.099252, -1.281565, -1.152163, 0.862353
1515636920.95568, -0.078592, -0.042832, -0.063994, -1.272967, -1.151915, 0.874763
1515636920.96569, -0.031395, -0.009513, -0.032182, -1.267583, -1.151816, 0.883565
1515636920.9757, 0.00122, -0.016413, -0.028419, -1.265008, -1.151974, 0.888454
1515636920.98571, 0.023987, -0.043478, -0.061797, -1.264357, -1.152529, 0.890062
1515636920.99572, 0.045903, -0.072841, -0.112994, -1.264531, -1.153405, 0.890418
1515636921.0057, 0.05195, -0.104696, -0.140802, -1.265475, -1.154599, 0.891192
1515636921.01571, 0.041005, -0.193785, -0.123258, -1.27005, -1.156092, 0.89191
1515636921.02572, -0.034289, -0.070874, -0.061231, -1.27815, -1.158024, 0.892274
1515636921.03573, -0.071827, -0.049835, -0.017665, -1.283422, -1.161317, 0.89708
1515636921.04574, -0.163007, -0.05989, 0.017396, -1.291184, -1.165279, 0.901882
1515636921.05575, -0.203745, 0.040049, 0.086656, -1.304048, -1.169416, 0.902598
1515636921.06576, -0.247976, 0.05734, 0.120698, -1.32032, -1.172977, 0.898551
1515636921.07577, -0.255209, 0.04302, 0.073461, -1.337377, -1.175999, 0.889852
1515636921.08578, -0.263696, 0.018245, -0.07104, -1.353863, -1.178452, 0.877273
1515636921.09579, -0.261101, 0.002981, -0.21879, -1.368732, -1.180548, 0.863773
1515636921.1058, -0.244628, -0.002254, -0.332298, -1.381286, -1.182199, 0.852517
1515636921.11581, -0.203545, 0.043966, -0.376744, -1.390998, -1.183286, 0.845627
1515636921.12582, -0.147133, 0.071549, -0.347676, -1.396128, -1.18366, 0.844362
1515636921.13583, -0.173378, 0.054894, -0.243314, -1.398214, -1.182672, 0.847989
1515636921.14584, -0.142183, 0.253857, -0.172903, -1.392354, -1.181335, 0.857958
1515636921.15585, -0.14659, 0.160946, -0.110477, -1.379652, -1.180171, 0.873921
1515636921.16585, -0.174078, 0.122338, -0.04695, -1.366176, -1.17866, 0.890023
1515636921.17587, -0.174325, 0.141608, 0.013789, -1.352369, -1.176792, 0.905665
1515636921.18588, -0.189484, 0.127008, 0.06317, -1.338866, -1.174407, 0.920754
1515636921.19588, -0.182647, 0.117578, 0.111418, -1.327794, -1.171611, 0.933452
1515636921.20589, -0.15978, 0.123876, 0.148727, -1.320786, -1.16853, 0.942455
1515636921.2159, -0.11372, 0.12953, 0.215678, -1.31736, -1.164785, 0.947761
1515636921.22591, -0.05171, 0.129718, 0.276033, -1.314075, -1.159932, 0.951006
1515636921.23589, 0.031092, 0.115103, 0.260023, -1.308695, -1.153778, 0.952722
1515636921.2459, 0.156391, 0.106497, 0.236186, -1.300066, -1.145973, 0.953261
1515636921.25591, 0.29572, 0.09709, 0.211289, -1.284113, -1.136356, 0.95569
1515636921.26592, 0.428852, 0.088201, 0.155181, -1.258378, -1.125236, 0.96233
1515636921.27593, 0.561209, 0.111316, 0.04228, -1.224399, -1.113453, 0.972816
1515636921.28594, 0.717732, 0.142221, -0.258047, -1.18695, -1.101998, 0.982791
1515636921.29595, 0.748645, 0.146801, -0.729327, -1.151246, -1.093152, 0.991103
1515636921.30596, 0.595156, 0.069734, -0.974662, -1.114353, -1.085955, 1.010886
1515636921.31597, 0.396924, 0.036689, -0.921343, -1.078001, -1.077596, 1.046795
1515636921.32598, 0.321928, 0.177117, -0.651785, -1.05002, -1.068358, 1.089899
1515636921.33599, 0.314651, 0.254249, -0.326605, -1.033495, -1.059433, 1.132054
1515636921.346, 0.315001, 0.208165, -0.059769, -1.025523, -1.051174, 1.170406
1515636921.35601, 0.265788, 0.129161, 0.119336, -1.021929, -1.044017, 1.204495
1515636921.36602, 0.167407, 0.072499, 0.196271, -1.020618, -1.038229, 1.233761
1515636921.37603, 0.079639, 0.046159, 0.245211, -1.021877, -1.033298, 1.25764
1515636921.38604, 0.017129, 0.021418, 0.304696, -1.025299, -1.028, 1.276704
1515636921.39605, -0.00713, -0.028397, 0.360362, -1.029403, -1.021555, 1.291588
1515636921.40603, 0.015443, -0.085544, 0.372417, -1.03351, -1.014037, 1.302335
1515636921.41604, 0.066535, -0.151891, 0.37409, -1.037621, -1.006092, 1.309203
1515636921.42605, 0.110221, -0.21277, 0.365293, -1.040885, -0.998348, 1.313024
1515636921.43606, 0.142328, -0.256759, 0.304333, -1.042408, -0.991145, 1.315059
1515636921.44607, 0.163964, -0.297693, 0.204932, -1.042414, -0.984843, 1.316725
1515636921.45608, 0.162666, -0.322971, 0.082722, -1.041199, -0.979802, 1.319016
1515636921.46606, 0.112022, -0.29617, -0.129306, -1.039819, -0.975694, 1.32307
1515636921.47607, 0.064764, -0.309499, -0.245389, -1.038879, -0.97134, 1.330706
1515636921.48608, 0.083186, -0.30324, -0.123377, -1.038602, -0.967936, 1.34045
1515636921.49608, 0.083104, -0.218949, 0.011383, -1.038603, -0.966159, 1.350741
1515636921.50609, 0.01255, -0.155207, 0.108118, -1.037565, -0.965237, 1.360745
1515636921.5161, -0.055151, -0.117803, 0.122888, -1.035487, -0.964318, 1.369759
1515636921.52611, -0.084804, -0.098378, 0.139674, -1.033895, -0.963193, 1.377101
1515636921.53612, -0.055124, -0.068863, 0.190715, -1.03407, -0.962224, 1.381719
1515636921.54613, 0.012145, -0.077803, 0.231836, -1.036475, -0.962061, 1.382782
1515636921.55614, 0.06365, -0.092909, 0.271319, -1.040273, -0.963049, 1.380311
1515636921.56615, 0.083948, -0.089929, 0.261833, -1.043627, -0.964941, 1.375063
1515636921.57616, 0.084782, -0.082915, 0.198608, -1.046015, -0.967365, 1.36726
1515636921.58617, 0.077574, -0.111311, 0.086494, -1.047869, -0.970247, 1.357103
1515636921.59618, 0.064537, -0.153674, -0.036738, -1.049178, -0.973775, 1.345749
1515636921.60619, 0.037319, -0.152048, -0.167835, -1.049755, -0.977924, 1.334708
1515636921.6162, -0.001176, -0.143768, -0.281577, -1.049998, -0.982484, 1.325113
1515636921.62621, -0.052053, -0.119519, -0.353926, -1.048998, -0.987114, 1.318236
1515636921.63622, -0.066662, -0.108435, -0.421111, -1.043598, -0.991102, 1.315117
1515636921.64623, -0.186852, -0.065564, -0.598107, -1.02605, -0.99315, 1.318463
1515636921.65624, -0.458577, 0.046054, -0.943381, -0.999988, -0.99103, 1.330718
1515636921.66625, -0.639764, 0.194182, -1.081469, -0.983132, -0.984111, 1.347615
1515636921.67626, -0.579992, 0.256548, -0.635373, -0.986878, -0.97616, 1.359765
1515636921.68627, -0.458434, 0.222509, -0.126362, -1.008802, -0.970727, 1.361729
1515636921.69625, -0.360911, 0.178159, 0.186433, -1.036787, -0.967077, 1.356204
1515636921.70626, -0.271219, 0.248032, 0.311269, -1.061735, -0.963344, 1.346857
1515636921.71627, -0.231604, 0.308522, 0.307657, -1.08341, -0.959073, 1.334588
1515636921.72628, -0.187502, 0.277529, 0.223728, -1.105723, -0.955288, 1.317674
1515636921.73629, -0.104525, 0.258544, 0.064371, -1.130288, -0.95313, 1.295744
1515636921.7463, 0.033899, 0.198509, -0.020605, -1.154529, -0.951746, 1.274402
1515636921.75631, 0.22316, 0.200882, 0.098315, -1.171374, -0.949501, 1.257996
1515636921.76632, 0.381506, 0.210394, 0.277315, -1.17199, -0.94458, 1.245365
1515636921.77633, 0.408088, 0.140403, 0.16713, -1.150892, -0.942524, 1.236439
1515636921.78634, 0.184381, 0.097764, -0.166966, -1.123208, -0.943522, 1.228379
1515636921.79635, -0.114589, 0.116167, -0.401594, -1.108595, -0.945317, 1.222638
1515636921.80636, -0.193306, 0.130328, -0.178759, -1.113886, -0.946907, 1.220655
1515636921.81637, -0.189348, 0.129596, -0.189363, -1.133199, -0.94816, 1.219353
1515636921.82638, 0.015815, 0.171312, 0.642155, -1.159244, -0.949787, 1.214316
1515636921.83639, 0.181047, 0.224002, 0.881796, -1.186432, -0.952096, 1.201261
1515636921.8464, 0.362201, 0.199435, 0.982276, -1.206864, -0.953573, 1.182805
1515636921.85641, 0.504595, 0.00537, 0.922776, -1.211107, -0.955531, 1.163911
1515636921.86642, 0.646603, -0.110413, 0.612103, -1.200654, -0.960358, 1.145085
1515636921.87643, 0.670222, -0.103498, 0.182909, -1.182466, -0.968466, 1.128781
1515636921.88644, 0.553165, -0.09994, -0.328047, -1.167394, -0.979951, 1.114576
1515636921.89645, 0.34919, -0.103081, -0.442519, -1.161879, -0.994205, 1.103663
1515636921.90645, 0.174584, -0.029991, -0.268754, -1.161998, -1.007668, 1.101065
1515636921.91646, 0.035688, 0.034519, -0.076795, -1.169665, -1.018457, 1.101823
1515636921.92644, 0.047723, 0.090509, 0.15859, -1.187605, -1.027766, 1.097976
1515636921.93645, 0.108489, 0.084426, 0.322366, -1.211981, -1.036649, 1.086753
1515636921.94646, 0.113779, -0.017709, 0.283465, -1.23608, -1.045757, 1.071409
1515636921.95647, 0.093439, -0.063204, 0.108272, -1.256903, -1.055445, 1.055511
1515636921.96648, 0.032832, -0.065785, -0.040086, -1.274434, -1.065665, 1.041001
1515636921.97649, -0.064921, -0.062441, -0.095829, -1.288435, -1.075877, 1.028826
1515636921.9865, -0.15568, -0.041655, -0.11763, -1.298888, -1.085268, 1.019141
1515636921.99651, -0.180767, -0.024579, -0.108536, -1.306089, -1.093072, 1.011816
1515636922.00652, -0.121146, -0.042393, -0.075167, -1.310897, -1.099432, 1.006343
1515636922.01653, -0.0581, -0.079817, -0.050037, -1.31504, -1.105435, 1.001603
1515636922.02654, -0.008122, -0.104007, -0.044702, -1.321239, -1.112053, 0.996233
1515636922.03655, 0.020208, -0.132062, 0.000736, -1.331311, -1.11954, 0.989438
1515636922.04656, 0.025577, -0.122002, 0.078698, -1.344755, -1.127679, 0.980742
1515636922.05657, 0.029195, -0.102373, 0.119775, -1.360761, -1.135922, 0.968992
1515636922.06658, 0.034788, -0.097539, 0.11248, -1.378253, -1.143895, 0.954214
1515636922.07659, 0.048189, -0.098825, 0.077826, -1.395763, -1.151485, 0.938182
1515636922.0866, 0.044015, -0.114113, 0.015963, -1.412557, -1.158508, 0.922564
1515636922.09661, 0.062439, -0.104816, -0.040397, -1.427765, -1.164903, 0.909347
1515636922.10662, 0.099418, -0.074204, -0.086053, -1.44092, -1.170771, 0.899768
1515636922.11663, 0.132469, -0.075265, -0.105855, -1.452612, -1.176751, 0.89371
1515636922.12664, 0.114842, -0.085214, -0.089065, -1.464577, -1.183687, 0.889565
1515636922.13665, 0.060276, -0.072591, -0.120965, -1.478429, -1.191634, 0.885187
1515636922.14666, -0.063348, -0.10911, -0.197419, -1.49276, -1.200276, 0.881549
1515636922.15664, -0.197074, -0.170951, -0.178242, -1.508397, -1.209737, 0.87483
1515636922.16665, -0.278061, -0.148374, -0.164725, -1.523701, -1.218848, 0.865238
1515636922.17666, -0.370736, -0.153184, -0.177723, -1.535467, -1.226328, 0.856828
1515636922.18667, -0.415839, -0.153135, -0.175583, -1.542418, -1.231461, 0.850843
1515636922.19668, -0.418266, -0.149079, -0.128829, -1.544647, -1.234137, 0.847236
1515636922.20669, -0.399816, -0.1769, -0.049051, -1.542772, -1.234844, 0.845765
1515636922.2167, -0.377487, -0.165323, 0.037345, -1.53911, -1.234347, 0.84471
1515636922.22671, -0.332389, -0.122963, 0.102221, -1.535882, -1.233006, 0.842388
1515636922.23672, -0.270321, -0.127088, 0.081455, -1.533679, -1.231138, 0.839295
1515636922.24673, -0.179125, -0.18064, 0.009702, -1.534126, -1.230113, 0.832439
1515636922.25674, -0.104205, -0.19103, -0.160522, -1.535464, -1.230795, 0.824256
1515636922.26675, -0.133437, -0.195043, -0.334466, -1.533289, -1.232998, 0.821413
1515636922.27676, -0.235407, -0.11269, -0.317343, -1.524607, -1.235535, 0.827095
1515636922.28676, -0.330767, -0.016834, -0.093938, -1.509074, -1.237209, 0.839863
1515636922.29677, -0.37818, 0.139455, 0.152724, -1.490821, -1.237088, 0.853991
1515636922.30678, -0.371103, 0.297739, 0.307005, -1.475448, -1.235357, 0.862934
1515636922.31679, -0.31994, 0.355633, 0.305506, -1.466919, -1.233222, 0.862159
1515636922.3268, -0.306267, 0.287014, 0.122356, -1.462859, -1.2318, 0.855498
1515636922.33681, -0.340771, 0.216454, -0.057456, -1.45404, -1.230573, 0.854636
1515636922.34682, -0.374696, 0.260435, 0.012026, -1.432962, -1.227823, 0.86586
1515636922.35683, -0.383703, 0.366735, 0.16722, -1.405839, -1.2224, 0.88021
1515636922.36684, -0.347355, 0.384029, 0.227349, -1.379706, -1.214425, 0.889446
1515636922.37685, -0.246353, 0.305727, 0.11885, -1.355189, -1.204096, 0.894912
1515636922.38683, -0.104511, 0.214854, -0.039126, -1.330664, -1.1918, 0.901379
1515636922.39684, 0.065602, 0.194967, -0.166436, -1.305726, -1.177709, 0.910598
1515636922.40681, 0.276029, 0.201487, -0.219094, -1.279573, -1.162019, 0.923208
1515636922.41682, 0.416049, 0.18623, -0.21747, -1.250936, -1.145515, 0.941005
1515636922.42683, 0.433483, 0.151724, -0.119403, -1.221495, -1.129251, 0.96258
1515636922.43684, 0.384998, 0.172226, 0.06411, -1.193546, -1.114117, 0.984929
1515636922.44685, 0.28605, 0.26301, 0.220997, -1.167669, -1.100546, 1.005604
1515636922.45686, 0.17183, 0.332814, 0.298354, -1.142534, -1.088147, 1.023718
1515636922.46687, 0.090681, 0.324338, 0.297884, -1.117314, -1.075781, 1.039054
1515636922.47688, -0.043618, 0.341629, 0.244418, -1.091127, -1.062888, 1.052798
1515636922.48689, -0.121049, 0.362989, 0.130719, -1.065615, -1.049409, 1.064579
1515636922.4969, -0.179554, 0.295104, 0.019727, -1.04207, -1.033959, 1.07321
1515636922.50691, -0.177066, 0.229356, -0.047202, -1.020025, -1.016052, 1.079752
1515636922.51692, -0.080586, 0.167464, -0.027184, -0.999743, -0.996098, 1.084327
1515636922.52693, 0.06254, 0.085321, 0.076142, -0.980652, -0.975547, 1.088697
1515636922.53694, 0.208872, 0.012321, 0.156755, -0.96264, -0.955623, 1.093217
1515636922.54695, 0.298637, -0.045507, 0.24138, -0.945268, -0.93683, 1.097511
1515636922.55696, 0.42267, -0.117516, 0.322124, -0.928092, -0.919672, 1.101676
1515636922.56697, 0.426226, -0.108248, 0.337217, -0.911993, -0.904531, 1.104752
1515636922.57698, 0.453013, -0.13983, 0.310157, -0.89696, -0.891401, 1.106723
1515636922.58699, 0.460322, -0.15535, 0.248978, -0.882565, -0.880044, 1.108273
1515636922.597, 0.433969, -0.169325, 0.079165, -0.868756, -0.870091, 1.109996
1515636922.60701, 0.395154, -0.169384, 0.027201, -0.855509, -0.861399, 1.11308
1515636922.61699, 0.341616, -0.169864, 0.005183, -0.843852, -0.853923, 1.117854
1515636922.627, 0.313276, -0.172229, 0.034363, -0.83504, -0.847513, 1.123356
1515636922.63701, 0.28318, -0.165946, 0.111404, -0.829344, -0.842369, 1.129088
1515636922.64702, 0.251952, -0.158751, 0.22544, -0.825441, -0.83856, 1.135149
1515636922.65703, 0.217192, -0.153693, 0.311569, -0.822195, -0.836019, 1.140675
1515636922.66703, 0.183487, -0.122452, 0.354646, -0.818531, -0.834895, 1.145106
1515636922.67704, 0.152781, -0.092407, 0.348214, -0.814032, -0.834917, 1.147718
1515636922.68705, 0.140087, -0.082569, 0.302742, -0.809691, -0.836039, 1.147368
1515636922.69706, 0.137176, -0.084031, 0.303442, -0.80593, -0.838221, 1.144402
1515636922.70707, 0.182074, -0.05371, 0.181267, -0.802201, -0.841304, 1.140363
1515636922.71708, 0.196084, -0.016549, 0.114243, -0.7989, -0.845082, 1.136231
1515636922.72709, 0.214126, 0.001697, 0.07996, -0.7966, -0.849373, 1.132687
1515636922.7371, 0.21435, 0.005378, 0.066629, -0.795799, -0.854372, 1.129781
1515636922.74711, 0.207926, 0.006938, 0.019052, -0.79685, -0.860569, 1.126699
1515636922.75712, 0.194378, 0.001088, -0.073921, -0.800216, -0.868431, 1.122427
1515636922.76713, 0.191781, -0.0051, -0.081862, -0.806307, -0.878064, 1.116482
1515636922.77714, 0.136661, 0.004844, -0.3043, -0.814752, -0.889185, 1.109219
1515636922.78715, 0.103818, 0.011892, -0.389622, -0.823726, -0.900897, 1.102292
1515636922.79716, 0.054773, 0.046603, -0.420799, -0.831549, -0.912139, 1.097418
1515636922.80717, -0.018995, 0.071987, -0.399396, -0.837896, -0.922414, 1.094082
1515636922.81718, -0.117579, 0.086868, -0.402871, -0.841591, -0.930972, 1.09204
1515636922.82719, -0.205005, 0.121262, -0.444677, -0.841179, -0.936976, 1.092292
1515636922.8372, -0.250442, 0.137957, -0.469784, -0.837704, -0.940277, 1.095801
1515636922.84718, -0.264788, 0.138341, -0.335865, -0.836338, -0.94162, 1.101512
1515636922.85719, -0.241116, 0.125277, -0.148235, -0.840258, -0.943233, 1.106981
1515636922.8672, -0.264623, 0.120696, 0.02328, -0.849988, -0.946444, 1.110712
1515636922.87721, -0.304646, 0.126643, 0.036784, -0.862787, -0.950848, 1.112102
1515636922.88722, -0.340095, 0.07147, -0.046198, -0.879104, -0.955692, 1.109781
1515636922.89723, -0.250734, 0.012465, -0.171824, -0.901741, -0.96076, 1.102895
1515636922.90724, -0.160392, 0.025594, -0.245678, -0.932873, -0.966472, 1.091355
1515636922.91725, -0.120407, 0.011081, -0.265074, -0.971313, -0.973655, 1.07514
1515636922.92726, -0.133372, 0.010321, -0.271227, -1.012389, -0.981484, 1.056039
1515636922.93727, -0.106325, 0.004904, -0.101522, -1.050445, -0.987634, 1.038513
1515636922.94728, -0.066693, 0.010585, 0.280214, -1.078466, -0.989959, 1.027897
1515636922.95729, 0.004936, 0.046534, 0.550565, -1.092725, -0.988598, 1.025799
1515636922.9673, 0.091953, 0.122588, 0.636838, -1.098005, -0.986264, 1.024671
1515636922.97731, 0.185469, 0.227264, 0.710194, -1.098797, -0.985903, 1.015969
1515636922.98732, 0.029192, 0.175392, 0.479314, -1.09572, -0.986746, 0.999598
1515636922.99733, -0.200866, 0.041656, 0.138928, -1.094747, -0.98909, 0.982305
1515636923.00734, -0.156685, 0.084063, 0.048918, -1.108481, -0.992761, 0.965603
1515636923.01735, 0.008428, 0.18626, 0.353163, -1.141571, -0.997482, 0.945299
1515636923.02736, 0.208661, 0.205368, 0.670142, -1.185078, -1.002813, 0.918783
1515636923.03737, 0.426583, 0.158979, 0.832612, -1.22515, -1.007143, 0.887949
1515636923.04738, 0.734936, -0.010036, 0.773133, -1.249804, -1.009562, 0.857791
1515636923.05739, 1.181265, -0.233643, 0.381781, -1.250375, -1.011092, 0.832692
1515636923.0674, 1.064002, -0.146157, -0.404199, -1.228053, -1.014856, 0.81498
1515636923.07737, 0.601959, 0.049604, -0.88762, -1.202847, -1.026638, 0.804435
1515636923.08738, 0.284884, -0.008693, -0.684823, -1.186586, -1.045122, 0.806532
1515636923.09739, -0.096709, 0.000863, -0.441305, -1.180841, -1.062841, 0.820605
1515636923.1074, -0.138444, 0.16991, 0.030568, -1.190934, -1.077765, 0.839257
1515636923.11741, -0.054565, 0.228331, 0.519286, -1.215759, -1.089378, 0.853475
1515636923.12742, 0.053526, 0.14184, 0.797543, -1.246569, -1.098629, 0.859173
1515636923.13743, 0.076128, 0.047726, 0.753364, -1.275487, -1.107287, 0.855424
1515636923.14744, 0.017683, -0.023027, 0.435261, -1.300429, -1.117003, 0.842251
1515636923.15745, -0.118553, -0.129149, 0.06626, -1.324503, -1.128334, 0.820919
1515636923.16746, -0.287072, -0.180268, -0.301816, -1.349309, -1.140834, 0.795464
1515636923.17747, -0.394154, -0.160799, -0.508145, -1.37432, -1.152894, 0.771207
1515636923.18748, -0.418884, -0.13489, -0.515817, -1.39488, -1.162166, 0.754918
1515636923.19749, -0.366157, -0.132379, -0.367082, -1.406295, -1.167399, 0.752172
1515636923.2075, -0.291047, -0.140171, -0.130372, -1.409538, -1.169216, 0.761178
1515636923.21751, -0.219768, -0.130841, 0.09009, -1.409795, -1.169043, 0.773983
1515636923.22752, -0.158027, -0.107074, 0.236164, -1.412053, -1.167968, 0.783361
1515636923.23753, -0.10547, -0.11083, 0.273484, -1.419284, -1.166613, 0.784617
1515636923.24754, -0.048336, -0.12533, 0.253523, -1.432397, -1.165616, 0.776342
1515636923.25755, 0.005882, -0.144006, 0.208043, -1.449264, -1.165419, 0.76066
1515636923.26756, 0.024657, -0.140548, 0.071603, -1.467079, -1.166093, 0.740298
1515636923.27757, -0.003536, -0.120577, -0.127829, -1.485568, -1.167653, 0.716808
1515636923.28758, -0.037857, -0.110047, -0.278815, -1.505562, -1.169794, 0.69251
1515636923.29759, -0.064011, -0.091021, -0.323046, -1.524868, -1.172189, 0.671999
1515636923.30757, -0.050405, -0.084018, -0.274588, -1.53981, -1.174556, 0.659197
1515636923.31758, -0.001163, -0.070199, -0.168424, -1.549928, -1.176631, 0.653151
1515636923.32759, 0.031359, -0.045479, -0.088466, -1.557801, -1.178861, 0.649258
1515636923.3376, 0.031468, -0.024903, -0.095263, -1.567465, -1.181648, 0.642621
1515636923.34761, 0.023699, -0.024843, -0.163454, -1.582358, -1.185003, 0.630296
1515636923.35762, 0.002432, -0.037073, -0.256716, -1.601986, -1.188649, 0.613803
1515636923.36763, -0.006178, -0.104968, -0.329204, -1.623101, -1.192413, 0.597577
1515636923.37764, -0.083636, -0.046147, -0.285882, -1.644156, -1.195527, 0.584134
1515636923.38765, -0.099158, 0.058043, -0.281382, -1.658354, -1.199621, 0.577048
1515636923.39766, -0.199343, -0.069402, -0.21037, -1.668868, -1.204413, 0.575278
1515636923.40763, -0.268741, -0.011849, -0.143792, -1.679092, -1.209396, 0.573923
1515636923.41764, -0.322344, 0.02807, -0.138845, -1.688955, -1.213862, 0.571804
1515636923.42765, -0.37513, -0.008614, -0.191601, -1.697857, -1.216937, 0.568027
1515636923.43766, -0.369253, -0.053301, -0.261446, -1.702973, -1.21864, 0.566049
1515636923.44767, -0.337024, -0.04561, -0.274237, -1.702422, -1.219304, 0.569619
1515636923.45768, -0.327401, -0.024204, -0.185532, -1.696134, -1.219133, 0.579582
1515636923.46769, -0.33518, 0.01459, -0.060969, -1.684937, -1.218053, 0.594137
1515636923.4777, -0.329395, 0.070873, 0.01189, -1.670859, -1.216089, 0.610684
1515636923.48771, -0.306885, 0.14638, 0.044831, -1.656968, -1.213445, 0.625515
1515636923.49772, -0.290463, 0.193453, 0.056865, -1.643584, -1.210489, 0.637623
1515636923.50773, -0.30993, 0.165984, 0.048561, -1.627526, -1.207481, 0.651574
1515636923.51774, -0.304734, 0.177586, 0.07038, -1.608075, -1.2046, 0.670232
1515636923.52775, -0.269504, 0.214763, 0.15261, -1.585739, -1.201441, 0.692425
1515636923.53776, -0.238971, 0.195127, 0.217959, -1.559912, -1.1974, 0.716501
1515636923.54774, -0.189986, 0.162707, 0.236772, -1.530105, -1.192317, 0.740956
1515636923.55775, -0.122692, 0.169682, 0.178726, -1.495014, -1.185677, 0.765467
1515636923.56776, -0.058478, 0.22394, 0.058799, -1.456601, -1.177558, 0.789437
1515636923.57777, 0.019999, 0.281335, -0.106263, -1.420866, -1.168366, 0.809708
1515636923.58778, 0.102976, 0.275672, -0.28275, -1.390874, -1.158207, 0.825033
1515636923.59779, 0.208332, 0.236355, -0.437496, -1.363429, -1.147109, 0.84027
1515636923.60779, 0.299006, 0.18714, -0.449865, -1.334212, -1.135253, 0.861685
1515636923.61781, 0.32112, 0.168352, -0.285467, -1.302408, -1.122807, 0.89104
1515636923.62782, 0.299957, 0.157546, -0.077624, -1.270714, -1.110018, 0.924062
1515636923.63783, 0.304282, 0.186929, 0.089479, -1.241969, -1.097224, 0.955544
1515636923.64784, 0.28819, 0.194067, 0.187305, -1.216928, -1.084573, 0.983248
1515636923.65785, 0.227512, 0.17719, 0.194856, -1.195381, -1.072276, 1.006087
1515636923.66786, 0.174795, 0.136334, 0.133893, -1.177514, -1.060234, 1.023421
1515636923.67787, 0.122062, 0.11138, 0.0359, -1.162588, -1.048352, 1.036776
1515636923.68787, 0.070539, 0.073163, -0.014186, -1.150191, -1.036475, 1.048476
1515636923.69788, 0.020714, 0.025444, -0.039603, -1.139657, -1.024293, 1.059834
1515636923.70789, 0.013543, -0.011189, -0.026757, -1.130359, -1.011473, 1.071565
1515636923.7179, 0.031301, -0.035716, 0.028552, -1.121741, -0.997972, 1.083765
1515636923.72791, 0.058527, -0.070114, 0.080119, -1.113365, -0.984219, 1.095793
1515636923.73792, 0.072226, -0.107784, 0.104344, -1.10508, -0.970839, 1.106766
1515636923.74793, 0.079302, -0.132663, 0.105634, -1.097517, -0.95821, 1.116168
1515636923.75794, 0.094981, -0.140006, 0.124748, -1.091783, -0.946401, 1.123694
1515636923.76795, 0.110414, -0.1419, 0.16876, -1.087891, -0.935498, 1.129378
1515636923.77793, 0.150607, -0.138181, 0.223351, -1.085331, -0.925442, 1.133608
1515636923.78794, 0.186244, -0.142552, 0.269878, -1.083363, -0.916249, 1.136686
1515636923.79795, 0.213096, -0.143951, 0.300195, -1.081759, -0.908188, 1.138633
1515636923.80796, 0.238759, -0.140423, 0.315022, -1.080422, -0.901343, 1.13934
1515636923.81797, 0.263132, -0.14498, 0.329069, -1.078973, -0.895699, 1.138747
1515636923.82798, 0.284415, -0.151339, 0.338399, -1.076636, -0.891359, 1.137007
1515636923.83799, 0.288054, -0.143697, 0.319733, -1.073211, -0.888575, 1.134207
1515636923.848, 0.287351, -0.134156, 0.285985, -1.069537, -0.887551, 1.130031
1515636923.85801, 0.303011, -0.136898, 0.271708, -1.066969, -0.888439, 1.124056
1515636923.86802, 0.304987, -0.152655, 0.26417, -1.065763, -0.891388, 1.116617
1515636923.87803, 0.30633, -0.152315, 0.225853, -1.065582, -0.896228, 1.108501
1515636923.88804, 0.299114, -0.144575, 0.192756, -1.066361, -0.902403, 1.100008
1515636923.89805, 0.271451, -0.131461, 0.170981, -1.067449, -0.90949, 1.091117
1515636923.90806, 0.210778, -0.123752, 0.14554, -1.067547, -0.916999, 1.081777
1515636923.91807, 0.160604, -0.112756, 0.042722, -1.065027, -0.924092, 1.072951
1515636923.92808, 0.096336, -0.130687, -0.048738, -1.060246, -0.93076, 1.065709
1515636923.93809, 0.02271, -0.121703, -0.119407, -1.053231, -0.937335, 1.060844
1515636923.9481, -0.04047, -0.059505, -0.230236, -1.044211, -0.943673, 1.057555
1515636923.95811, -0.084869, -0.032868, -0.365452, -1.030465, -0.94911, 1.054802
1515636923.96812, -0.21332, -0.062492, -0.591179, -1.004628, -0.952088, 1.055929
1515636923.97813, -0.384022, -0.080832, -0.965896, -0.970329, -0.951113, 1.066188
1515636923.98814, -0.452624, 0.056749, -1.211985, -0.950458, -0.948609, 1.080611
1515636923.99815, -0.427532, 0.241626, -0.77621, -0.958918, -0.947376, 1.091006
1515636924.00813, -0.291184, 0.285887, -0.26428, -0.989305, -0.948692, 1.093836
1515636924.01814, -0.224636, 0.356115, 0.071483, -1.028139, -0.952198, 1.089993
1515636924.02815, -0.223039, 0.452443, 0.181324, -1.065626, -0.956024, 1.082171
1515636924.03816, -0.14573, 0.498712, 0.211643, -1.09811, -0.957872, 1.072141
1515636924.04817, -0.070194, 0.425968, 0.260275, -1.123786, -0.958146, 1.061183
1515636924.05818, -0.030243, 0.379038, 0.246457, -1.143, -0.959303, 1.049574
1515636924.06819, 0.062011, 0.383632, 0.09471, -1.158182, -0.962151, 1.036354
1515636924.07819, 0.220454, 0.306523, 0.013455, -1.168112, -0.966205, 1.023033
1515636924.0882, 0.278276, 0.20574, -0.055598, -1.168203, -0.97043, 1.015022
1515636924.09821, 0.152966, 0.156664, -0.01885, -1.162879, -0.973821, 1.014873
1515636924.10822, 0.038914, 0.14694, 0.080555, -1.16123, -0.976602, 1.019149
1515636924.11823, 0.041097, 0.132382, 0.190735, -1.171414, -0.979856, 1.02119
1515636924.12824, 0.105192, 0.090973, 0.368339, -1.19613, -0.984411, 1.016715
1515636924.13825, 0.223864, 0.08735, 0.550419, -1.231411, -0.989878, 1.004608
1515636924.14826, 0.351914, 0.047348, 0.686002, -1.270064, -0.995591, 0.986815
1515636924.15827, 0.433658, -0.046476, 0.741203, -1.30381, -1.001194, 0.967257
1515636924.16828, 0.523871, -0.096957, 0.71198, -1.326794, -1.006601, 0.949312
1515636924.17829, 0.61264, -0.150819, 0.652949, -1.336395, -1.01233, 0.934524
1515636924.1883, 0.6345, -0.197844, 0.546019, -1.331736, -1.019305, 0.923474
1515636924.19831, 0.574737, -0.171084, 0.345992, -1.316669, -1.028024, 0.915887
1515636924.20832, 0.418666, -0.133347, 0.210988, -1.297008, -1.03848, 0.910378
1515636924.21833, 0.268486, -0.084427, 0.057272, -1.278328, -1.049955, 0.90499
1515636924.22834, 0.160339, -0.046949, -0.084054, -1.266259, -1.062006, 0.897189
1515636924.23835, 0.074294, -0.037308, -0.188242, -1.26408, -1.074429, 0.885596
1515636924.24833, 0.007469, -0.037436, -0.375433, -1.274647, -1.087218, 0.868884
1515636924.25834, -0.074889, -0.070441, -0.581332, -1.301292, -1.100582, 0.845985
1515636924.26835, -0.05963, -0.080055, -0.428517, -1.333277, -1.112752, 0.8254
1515636924.27836, -0.056546, -0.091115, -0.284772, -1.357337, -1.122681, 0.81554
1515636924.28837, -0.049591, -0.089638, -0.180167, -1.371539, -1.131038, 0.814562
1515636924.29838, -0.055512, -0.06025, -0.085194, -1.379342, -1.138844, 0.817773
1515636924.30839, -0.074779, -0.032295, -0.005217, -1.384063, -1.14656, 0.82268
1515636924.3184, -0.099818, -0.0062, 0.064588, -1.388192, -1.154181, 0.827881
1515636924.32841, -0.125831, 0.024185, 0.109359, -1.393508, -1.161661, 0.831812
1515636924.33842, -0.145382, 0.040771, 0.150772, -1.401267, -1.168623, 0.83316
1515636924.34843, -0.146603, 0.048132, 0.186246, -1.411703, -1.174691, 0.831406
1515636924.35844, -0.122188, 0.045985, 0.220529, -1.423958, -1.179654, 0.826292
1515636924.36845, -0.125108, 0.044501, 0.215339, -1.436424, -1.183566, 0.818006
1515636924.37846, -0.04203, -0.004059, 0.187565, -1.447575, -1.186583, 0.807355
1515636924.38847, -0.009693, -0.040561, 0.102839, -1.456605, -1.189083, 0.795892
1515636924.39848, 0.006596, -0.069877, 0.015367, -1.463934, -1.191516, 0.784844
1515636924.40843, 0.020609, -0.091913, -0.026835, -1.469939, -1.194252, 0.774857
1515636924.41844, 0.029991, -0.096664, -0.064363, -1.4752, -1.197391, 0.765777
1515636924.42845, 0.015783, -0.103974, -0.060679, -1.47968, -1.200797, 0.757415
1515636924.43846, 0.015665, -0.095447, -0.082646, -1.483559, -1.204195, 0.749427
1515636924.44847, 0.010523, -0.094159, -0.10524, -1.487937, -1.207599, 0.740929
1515636924.45848, 0.00518, -0.094733, -0.109212, -1.492722, -1.210989, 0.731774
1515636924.46849, 0.00579, -0.080935, -0.18004, -1.499443, -1.214461, 0.721296
1515636924.47847, -0.018804, -0.079629, -0.240709, -1.509063, -1.218039, 0.709664
1515636924.48848, -0.046253, -0.088515, -0.288415, -1.519694, -1.221562, 0.699621
1515636924.49849, -0.062892, -0.07549, -0.302813, -1.528034, -1.224895, 0.694727
1515636924.5085, -0.071015, -0.065497, -0.287124, -1.533019, -1.227974, 0.695762
1515636924.51851, -0.092696, -0.058615, -0.232822, -1.534719, -1.231025, 0.701621
1515636924.52852, -0.139919, -0.064246, -0.165185, -1.532221, -1.234339, 0.712902
1515636924.53852, -0.204434, -0.058826, -0.082064, -1.526043, -1.238001, 0.72886
1515636924.54853, -0.253322, -0.028396, 0.001045, -1.517984, -1.241274, 0.746453
1515636924.55854, -0.299139, 0.053327, 0.022343, -1.511901, -1.243461, 0.761403
1515636924.56855, -0.333891, 0.082228, 0.030991, -1.510775, -1.24398, 0.770503
1515636924.57856, -0.345736, 0.023444, -0.019491, -1.514446, -1.24291, 0.773581
1515636924.58857, -0.322367, -0.043378, -0.118985, -1.521613, -1.241077, 0.772912
1515636924.59858, -0.281332, -0.042202, -0.16059, -1.527362, -1.238774, 0.774017
1515636924.60859, -0.228274, 0.013527, -0.177579, -1.527287, -1.235779, 0.781329
1515636924.6186, -0.190726, 0.026895, -0.166355, -1.522823, -1.232264, 0.793549
1515636924.62861, -0.177325, 0.095827, -0.094262, -1.514703, -1.228448, 0.810088
1515636924.63862, -0.168344, 0.249607, -0.042047, -1.499974, -1.224871, 0.833353
1515636924.64863, -0.157674, 0.265235, -0.002848, -1.480843, -1.221589, 0.861252
1515636924.65864, -0.170933, 0.214465, 0.072566, -1.460162, -1.217918, 0.890164
1515636924.66865, -0.159766, 0.271295, 0.16456, -1.436709, -1.213688, 0.920839
1515636924.67866, -0.154489, 0.292244, 0.207576, -1.413602, -1.20866, 0.950015
1515636924.68867, -0.128254, 0.290333, 0.251149, -1.394849, -1.202943, 0.972169
1515636924.69868, -0.079594, 0.267559, 0.270562, -1.38033, -1.196735, 0.986181
1515636924.70869, -0.048746, 0.23174, 0.174234, -1.371316, -1.190415, 0.991696
1515636924.71867, -0.007906, 0.236856, -0.030255, -1.370847, -1.183921, 0.987123
1515636924.72868, 0.077788, 0.246272, -0.223893, -1.376292, -1.176425, 0.976441
1515636924.73869, 0.177954, 0.198048, -0.422461, -1.380171, -1.167288, 0.969143
1515636924.7487, 0.296433, 0.104216, -0.608643, -1.380743, -1.156215, 0.971256
1515636924.75871, 0.354128, 0.129099, -0.456454, -1.373727, -1.144595, 0.98391
1515636924.76872, 0.479997, 0.202967, -0.330883, -1.356308, -1.134377, 1.008021
1515636924.77873, 0.490502, 0.170645, -0.193605, -1.334436, -1.124137, 1.037186
1515636924.78874, 0.438844, 0.207122, -0.092358, -1.310844, -1.113912, 1.068268
1515636924.79875, 0.386805, 0.213957, 0.003007, -1.287461, -1.103509, 1.099275
1515636924.80876, 0.300715, 0.165994, 0.065878, -1.266499, -1.093159, 1.127805
1515636924.81877, 0.215412, 0.139129, 0.057985, -1.248077, -1.082956, 1.153795
1515636924.82878, 0.126911, 0.143126, -0.004386, -1.231233, -1.072129, 1.178434
1515636924.83879, 0.04589, 0.098975, -0.048088, -1.21586, -1.060247, 1.202172
1515636924.8488, 0.018875, 0.05086, -0.062271, -1.203174, -1.047624, 1.224438
1515636924.85881, 0.039973, 0.021431, -0.028061, -1.193925, -1.034658, 1.244117
1515636924.86882, 0.086665, -0.016767, 0.032326, -1.187037, -1.021696, 1.260794
1515636924.87883, 0.126213, -0.066861, 0.079318, -1.180453, -1.009134, 1.275343
1515636924.88884, 0.152281, -0.113734, 0.082866, -1.173224, -0.997098, 1.288726
1515636924.89885, 0.166324, -0.144612, 0.053136, -1.16572, -0.985579, 1.301324
1515636924.90886, 0.186116, -0.183972, 0.024343, -1.158743, -0.974743, 1.313342
1515636924.91887, 0.219049, -0.203262, 0.026106, -1.152856, -0.96479, 1.324868
1515636924.92888, 0.268173, -0.225581, 0.07486, -1.147643, -0.955971, 1.336306
1515636924.93889, 0.287142, -0.235695, 0.136569, -1.141616, -0.948467, 1.348203
1515636924.94886, 0.307965, -0.229522, 0.158353, -1.134579, -0.94225, 1.360444
1515636924.95887, 0.31562, -0.219311, 0.163789, -1.126742, -0.937409, 1.372673
1515636924.96888, 0.314304, -0.203311, 0.161414, -1.118214, -0.933844, 1.384651
1515636924.97889, 0.306901, -0.193645, 0.142969, -1.109594, -0.931424, 1.39635
1515636924.9889, 0.282808, -0.188274, 0.123594, -1.102539, -0.930428, 1.406921
1515636924.99891, 0.267047, -0.171176, 0.132115, -1.099095, -0.931258, 1.415166
1515636925.00892, 0.261089, -0.145781, 0.158846, -1.10013, -0.934068, 1.420384
1515636925.01893, 0.274837, -0.117308, 0.185843, -1.104872, -0.938572, 1.422713
1515636925.02894, 0.287439, -0.107168, 0.224076, -1.111484, -0.944288, 1.422666
1515636925.03895, 0.285713, -0.100997, 0.268825, -1.118154, -0.950786, 1.420589
1515636925.04896, 0.269304, -0.097051, 0.288986, -1.123463, -0.957949, 1.416654
1515636925.05897, 0.246829, -0.111434, 0.272556, -1.126064, -0.965701, 1.411308
1515636925.06898, 0.198072, -0.117949, 0.207871, -1.124678, -0.973415, 1.405766
1515636925.07899, 0.120709, -0.097354, 0.086468, -1.119222, -0.980184, 1.401181
1515636925.089, 0.090202, -0.091578, -0.157719, -1.110435, -0.98559, 1.397698
1515636925.09901, 0.083981, -0.093973, -0.153436, -1.098406, -0.989939, 1.395026
1515636925.10902, 0.130198, -0.133848, -0.384435, -1.08251, -0.994355, 1.393257
1515636925.11903, -0.30917, 0.038325, -1.637232, -1.066705, -0.99999, 1.394567
1515636925.12904, -0.441759, 0.235194, -1.399714, -1.056111, -1.002623, 1.405468
1515636925.13905, -0.414757, 0.207476, -0.844279, -1.05576, -0.998567, 1.427436
1515636925.14906, -0.306717, 0.232003, -0.28128, -1.074058, -0.993504, 1.446768
1515636925.15907, -0.209761, 0.339034, -0.108737, -1.104475, -0.991316, 1.455666
1515636925.16908, -0.146012, 0.466619, -0.10504, -1.136652, -0.990887, 1.45578
1515636925.17909, -0.119903, 0.529522, -0.065756, -1.164787, -0.989873, 1.453942
1515636925.18907, -0.113476, 0.531139, -0.074761, -1.1844, -0.986933, 1.455623
1515636925.19908, 0.060116, 0.521701, -0.045338, -1.197589, -0.982727, 1.460569
1515636925.20909, 0.105526, 0.522299, 0.157469, -1.206171, -0.979319, 1.467422
1515636925.2191, 0.094479, 0.550249, 0.273295, -1.207434, -0.976787, 1.476524
1515636925.22911, 0.02153, 0.513448, 0.276075, -1.202093, -0.974113, 1.48704
1515636925.23912, -0.052919, 0.424741, 0.258438, -1.196239, -0.971174, 1.495954
1515636925.24913, -0.031113, 0.361609, 0.280332, -1.196726, -0.968002, 1.501018
1515636925.25914, 0.116904, 0.299968, 0.400967, -1.20676, -0.964531, 1.500892
1515636925.26915, 0.33361, 0.222398, 0.540361, -1.22286, -0.959851, 1.494533
1515636925.27916, 0.530582, 0.146426, 0.537132, -1.235446, -0.953599, 1.484849
1515636925.28917, 0.678785, 0.052904, 0.404507, -1.237914, -0.945917, 1.477708
1515636925.29918, 0.752661, -0.012638, 0.286969, -1.232032, -0.937678, 1.477157
1515636925.30919, 0.793311, -0.014736, 0.274467, -1.22419, -0.931016, 1.482523
1515636925.3192, 0.794395, -0.013193, 0.277539, -1.219983, -0.928435, 1.489537
1515636925.32921, 0.96376, 0.189348, 0.268213, -1.222332, -0.930585, 1.495498
1515636925.33922, 0.847216, 0.236877, 0.218068, -1.228759, -0.936951, 1.501254
1515636925.34923, 0.704311, 0.255603, 0.122741, -1.235993, -0.946515, 1.508509
1515636925.35924, 0.601251, 0.305464, 0.053354, -1.241723, -0.956882, 1.519109
1515636925.36924, 0.489324, 0.318217, 0.025603, -1.246009, -0.967054, 1.533979
1515636925.37925, 0.37694, 0.331387, -0.004032, -1.250364, -0.977341, 1.552211
1515636925.38926, 0.27738, 0.346018, 0.003029, -1.257384, -0.988156, 1.572296
1515636925.39927, 0.197347, 0.360999, 0.074358, -1.268022, -0.999321, 1.593897
1515636925.40925, 0.128404, 0.342962, 0.16797, -1.280846, -1.009962, 1.61704
1515636925.41923, 0.083436, 0.305763, 0.25041, -1.293437, -1.019206, 1.641329
1515636925.42924, 0.048347, 0.281526, 0.316572, -1.304147, -1.026718, 1.666147
1515636925.43924, 0.033132, 0.236234, 0.361665, -1.312195, -1.032501, 1.690844
1515636925.44925, 0.016885, 0.176116, 0.33924, -1.318291, -1.0368, 1.714512
1515636925.45926, 0.011114, 0.127881, 0.294897, -1.324647, -1.040261, 1.736228
1515636925.46927, 0.023641, 0.087897, 0.272345, -1.332424, -1.043297, 1.756399
1515636925.47928, 0.036599, 0.042819, 0.271151, -1.340803, -1.045887, 1.776374
1515636925.48929, 0.052386, 0.007319, 0.252742, -1.34794, -1.048037, 1.797129
1515636925.4993, 0.054772, -0.01859, 0.19728, -1.352865, -1.049873, 1.818903
1515636925.50931, 0.065959, -0.044785, 0.114027, -1.355562, -1.051615, 1.841771
1515636925.51932, 0.080411, -0.07007, 0.022651, -1.356399, -1.053497, 1.865755
1515636925.52933, 0.097188, -0.070816, -0.063217, -1.35596, -1.05575, 1.891063
1515636925.53934, 0.11695, -0.044977, -0.085948, -1.354266, -1.058283, 1.918583
1515636925.54935, 0.134721, -0.023302, -0.088491, -1.350387, -1.060637, 1.949143
1515636925.55936, 0.146825, -0.0204, -0.088544, -1.344837, -1.062636, 1.982109
1515636925.56937, 0.152291, -0.039224, -0.08664, -1.338752, -1.064478, 2.016679
1515636925.57938, 0.165806, -0.053375, -0.071592, -1.332744, -1.066288, 2.05315
1515636925.58939, 0.180289, -0.048817, -0.017485, -1.326594, -1.068035, 2.09198
1515636925.5994, 0.195498, -0.040158, 0.050494, -1.319741, -1.069764, 2.132814
1515636925.60941, 0.212287, -0.029668, 0.127865, -1.312143, -1.071659, 2.174779
1515636925.61942, 0.204519, -0.010293, 0.185386, -1.303719, -1.074062, 2.217291
1515636925.62943, 0.166316, 0.00244, 0.220358, -1.295043, -1.077001, 2.259459
1515636925.63944, 0.114754, 0.007184, 0.245916, -1.286772, -1.080395, 2.300881
1515636925.64945, 0.067706, 0.013313, 0.274865, -1.279412, -1.083982, 2.34133
1515636925.65943, 0.033062, 0.010758, 0.303832, -1.273227, -1.087399, 2.380366
1515636925.66944, 0.012728, -0.000566, 0.324558, -1.267772, -1.090366, 2.418019
1515636925.67945, 0.012805, -0.019632, 0.327141, -1.262131, -1.092667, 2.454212
1515636925.68946, 0.006975, -0.056008, 0.294893, -1.255283, -1.094325, 2.489151
1515636925.69947, -0.020453, -0.106276, 0.206315, -1.246772, -1.095504, 2.523439
1515636925.70948, -0.055992, -0.144187, 0.114339, -1.23718, -1.096288, 2.557688
1515636925.71949, -0.093252, -0.164071, 0.05073, -1.227198, -1.096627, 2.592718
1515636925.7295, -0.116524, -0.166124, 0.011704, -1.216967, -1.096345, 2.629214
1515636925.73951, -0.12807, -0.146962, -0.010433, -1.206299, -1.095084, 2.667706
1515636925.74952, -0.124229, -0.128499, -0.011635, -1.196021, -1.092756, 2.70844
1515636925.75953, -0.111781, -0.10443, 0.054165, -1.188109, -1.089735, 2.750872
1515636925.76954, -0.086112, -0.056617, 0.172973, -1.184235, -1.08666, 2.793753
1515636925.77955, -0.028046, 0.019682, 0.306565, -1.18529, -1.083545, 2.83447
1515636925.78956, 0.052865, 0.066501, 0.454548, -1.190222, -1.080025, 2.870113
1515636925.79957, 0.200939, 0.084692, 0.550971, -1.194378, -1.075764, 2.900122
1515636925.80958, 0.36663, 0.098436, 0.583275, -1.191166, -1.070275, 2.925878
1515636925.81959, 0.634987, 0.17788, 0.290057, -1.174549, -1.063688, 2.948788
1515636925.8296, 0.803876, 0.311099, -1.743711, -1.152911, -1.059099, 2.960479
1515636925.8396, 0.794827, 0.130857, -2.627245, -1.130123, -1.054424, 3.000023
1515636925.84961, 0.548701, 0.156895, -0.947788, -1.098768, -1.048385, 3.077603
1515636925.85962, 0.498033, 0.788253, -0.245496, -1.074498, -1.048089, -3.1252
1515636925.86963, 0.448887, 0.939117, 0.181495, -1.065447, -1.053989, -3.053008
1515636925.87964, 0.28011, 0.656299, 0.556891, -1.0632, -1.063197, -2.988749
1515636925.88965, 0.000444, 0.48323, 0.733065, -1.054479, -1.07235, -2.927786
1515636925.89963, -0.337867, 0.431731, 0.691398, -1.038236, -1.079971, -2.870965
1515636925.90964, -0.630408, 0.335162, 0.533378, -1.022962, -1.085199, -2.824497
1515636925.91965, -0.768287, 0.235988, 0.343692, -1.016547, -1.08695, -2.792498
1515636925.92966, -0.715344, 0.134106, 0.128698, -1.020554, -1.08368, -2.773127
1515636925.93967, -0.490721, -0.068299, -0.009763, -1.030138, -1.074527, -2.760169
1515636925.94968, -0.175905, -0.219579, -0.052531, -1.038097, -1.061613, -2.748096
1515636925.95969, 0.072566, -0.328003, -0.092768, -1.039497, -1.047324, -2.734156
1515636925.9697, 0.166902, -0.448554, -0.173584, -1.031743, -1.033433, -2.715368
1515636925.97971, 0.165861, -0.470598, -0.229571, -1.01786, -1.021354, -2.69103
1515636925.98972, 0.105832, -0.378124, -0.212583, -1.004091, -1.011458, -2.663815
1515636925.99973, 0.084389, -0.365711, -0.162777, -0.993904, -1.003245, -2.63616
1515636926.00974, 0.116559, -0.34458, -0.11255, -0.986577, -0.996247, -2.608541
1515636926.01975, 0.154133, -0.312553, -0.072373, -0.980106, -0.989796, -2.580797
1515636926.02976, 0.195438, -0.273456, -0.057381, -0.972535, -0.983563, -2.552424
1515636926.03977, 0.232613, -0.245216, -0.074133, -0.963235, -0.977484, -2.523141
1515636926.04978, 0.268681, -0.230493, -0.075537, -0.952899, -0.972132, -2.493124
1515636926.05979, 0.284856, -0.218479, -0.062141, -0.942127, -0.968423, -2.462516
1515636926.0698, 0.259408, -0.176086, -0.040526, -0.931058, -0.966857, -2.43151
1515636926.07981, 0.198749, -0.129248, -0.017668, -0.920321, -0.967325, -2.400755
1515636926.08982, 0.138772, -0.082454, 0.008462, -0.910927, -0.969217, -2.371026
1515636926.09983, 0.104184, -0.061269, 0.035993, -0.903621, -0.97218, -2.343646
1515636926.10984, 0.084753, -0.052272, 0.065022, -0.898059, -0.976045, -2.318923
1515636926.11985, 0.103939, -0.036788, 0.114505, -0.892725, -0.98056, -2.295248
1515636926.12983, 0.095131, -0.032429, 0.160631, -0.886848, -0.985772, -2.272864
1515636926.13984, 0.078142, -0.027774, 0.1695, -0.880021, -0.992184, -2.252635
1515636926.14985, 0.048489, -0.043183, 0.131144, -0.871728, -0.999785, -2.23484
1515636926.15986, 0.008641, -0.061885, 0.028819, -0.860998, -1.008044, -2.218747
1515636926.16987, -0.057785, -0.071491, -0.078873, -0.846442, -1.016091, -2.203158
1515636926.17988, -0.148821, -0.084116, -0.284972, -0.827697, -1.022801, -2.187066
1515636926.18989, -0.274425, -0.083505, -0.828995, -0.807286, -1.026531, -2.168584
1515636926.1999, -0.27241, -0.123575, -0.876625, -0.792823, -1.027358, -2.148797
1515636926.20991, -0.195425, -0.098458, -0.498974, -0.785761, -1.027563, -2.130187
1515636926.21991, -0.148942, -0.048949, -0.299421, -0.783764, -1.027988, -2.113422
1515636926.22992, -0.070295, -0.053992, -0.229052, -0.787415, -1.029778, -2.100632
1515636926.23993, 0.022561, -0.127951, -0.094458, -0.796738, -1.033372, -2.092493
1515636926.24994, 0.085257, -0.139613, 0.05836, -0.807453, -1.038259, -2.086731
1515636926.25995, 0.117686, -0.142851, 0.079739, -0.816106, -1.043912, -2.081814
1515636926.26996, 0.0708, -0.142122, 0.00568, -0.823595, -1.050112, -2.078207
1515636926.27997, 0.034371, -0.158996, -0.056663, -0.832387, -1.056648, -2.076369
1515636926.28998, -0.038223, -0.152151, -0.164837, -0.845399, -1.063748, -2.077142
1515636926.29999, -0.09435, -0.144004, -0.277752, -0.865355, -1.071502, -2.081226
1515636926.31, -0.119165, -0.14863, -0.3222, -0.893014, -1.079535, -2.088295
1515636926.32001, -0.107035, -0.145812, -0.339804, -0.925873, -1.087464, -2.097532
1515636926.33002, -0.066802, -0.108135, -0.310157, -0.959814, -1.095097, -2.108203
1515636926.34003, -0.043768, 0.001606, -0.264616, -0.988461, -1.102144, -2.118812
1515636926.35004, -0.088977, 0.214752, -0.194702, -1.00806, -1.108305, -2.12649
1515636926.36005, -0.17452, 0.414629, -0.069872, -1.02207, -1.112523, -2.132183
1515636926.37003, -0.206854, 0.298945, 0.104416, -1.034773, -1.114267, -2.137509
1515636926.38004, -0.144886, 0.212425, 0.227419, -1.045106, -1.11462, -2.139491
1515636926.39005, -0.095869, 0.262955, 0.34823, -1.054253, -1.115051, -2.138546
1515636926.40006, -0.012617, 0.240625, 0.468777, -1.066534, -1.117186, -2.140448
1515636926.41003, 0.158271, 0.172323, 0.509133, -1.084743, -1.122271, -2.151623
1515636926.42004, 0.302547, 0.001908, 0.224865, -1.107009, -1.130586, -2.173351
1515636926.43005, 0.372614, -0.241197, -0.568036, -1.132807, -1.141974, -2.19682
1515636926.44006, 0.380991, -0.318645, -0.729246, -1.155794, -1.154536, -2.20473
1515636926.45007, 0.222404, -0.204358, -0.290246, -1.161461, -1.16454, -2.186268
1515636926.46008, -0.043392, -0.022062, 0.187009, -1.154628, -1.170765, -2.153159
1515636926.47009, -0.157865, 0.099602, 0.65546, -1.14957, -1.17366, -2.123294
1515636926.4801, -0.177341, 0.125092, 0.908754, -1.154444, -1.175101, -2.108182
1515636926.49011, -0.147754, 0.079329, 0.914623, -1.173463, -1.177289, -2.113752
1515636926.50012, -0.098863, 0.030995, 0.764439, -1.205823, -1.181113, -2.138119
1515636926.51013, -0.087206, -0.043299, 0.587508, -1.244791, -1.18608, -2.172636
1515636926.52014, -0.117545, -0.089124, 0.380964, -1.282909, -1.191492, -2.210018
1515636926.53015, -0.142792, -0.106012, 0.057919, -1.316976, -1.196624, -2.24544
1515636926.54016, -0.155365, -0.142205, -0.262289, -1.348808, -1.201622, -2.277153
1515636926.55017, -0.111682, -0.112316, -0.413869, -1.377039, -1.206353, -2.302609
1515636926.56018, -0.09739, -0.052066, -0.529471, -1.397746, -1.210289, -2.317636
1515636926.57019, -0.102249, -0.029433, -0.631648, -1.411107, -1.213534, -2.321023
1515636926.5802, -0.12923, -0.027586, -0.546404, -1.418564, -1.215852, -2.313432
1515636926.59021, -0.152649, -0.007723, -0.319197, -1.421255, -1.217185, -2.297168
1515636926.60022, -0.162309, -0.007105, -0.059007, -1.42236, -1.217559, -2.27775
1515636926.6102, -0.146709, -0.006405, 0.153382, -1.42481, -1.217211, -2.260687
1515636926.62021, -0.112658, -0.006281, 0.278309, -1.431014, -1.216678, -2.250284
1515636926.63022, -0.095596, -0.030591, 0.337139, -1.441905, -1.216464, -2.249354
1515636926.64023, -0.092443, -0.031758, 0.287907, -1.456956, -1.216706, -2.257904
1515636926.65024, -0.100794, -0.017788, 0.159398, -1.475465, -1.217167, -2.273923
1515636926.66025, -0.108881, -0.048624, -0.018577, -1.496346, -1.217512, -2.294662
1515636926.67026, -0.111319, -0.08691, -0.21948, -1.517898, -1.217738, -2.316898
1515636926.68027, -0.107828, -0.086284, -0.343282, -1.537374, -1.218003, -2.336133
1515636926.69028, -0.130203, -0.059985, -0.347872, -1.551453, -1.218112, -2.347949
1515636926.70029, -0.145696, -0.044151, -0.261891, -1.559647, -1.217595, -2.35192
1515636926.7103, -0.147216, -0.015155, -0.105034, -1.564448, -1.216042, -2.352211
1515636926.72031, -0.107267, 0.003214, 0.029063, -1.568413, -1.213247, -2.353513
1515636926.73032, -0.051696, -0.000436, 0.085878, -1.573641, -1.209613, -2.359
1515636926.74033, 0.01147, -0.012396, 0.033919, -1.583066, -1.205739, -2.370811
1515636926.75034, 0.064278, -0.039943, -0.058881, -1.598534, -1.202221, -2.389111
1515636926.76035, 0.123132, -0.055379, -0.139771, -1.618056, -1.19925, -2.411162
1515636926.77036, 0.177576, -0.051152, -0.28069, -1.638946, -1.197071, -2.433647
1515636926.78036, 0.19329, -0.033656, -0.399156, -1.660152, -1.196335, -2.454677
1515636926.79038, 0.167487, -0.007519, -0.489478, -1.680859, -1.197466, -2.472145
1515636926.80039, 0.119764, 0.007663, -0.528879, -1.701378, -1.200071, -2.485357
1515636926.8104, 0.056554, 0.002258, -0.511954, -1.722269, -1.203676, -2.495446
1515636926.82041, -0.01241, 0.007317, -0.460176, -1.742372, -1.207798, -2.502691
1515636926.83042, -0.112513, -0.031734, -0.420019, -1.759921, -1.212349, -2.506348
1515636926.84043, -0.20932, -0.04693, -0.369819, -1.77331, -1.217027, -2.505189
1515636926.8504, -0.284708, -0.035164, -0.277912, -1.782028, -1.221365, -2.498857
1515636926.86041, -0.317739, -0.024858, -0.180919, -1.786961, -1.224974, -2.488942
1515636926.87042, -0.354039, -0.016521, -0.177832, -1.790269, -1.228032, -2.47849
1515636926.88043, -0.356861, -0.01095, -0.231935, -1.795099, -1.231313, -2.471373
1515636926.89044, -0.352155, -0.001856, -0.280922, -1.799499, -1.234535, -2.46653
1515636926.90045, -0.37698, 0.012813, -0.340489, -1.797874, -1.237119, -2.457847
1515636926.91046, -0.400407, 0.043, -0.341434, -1.786065, -1.238688, -2.439365
1515636926.92047, -0.398842, 0.043028, -0.334261, -1.76355, -1.238605, -2.410004
1515636926.93048, -0.419674, 0.060276, -0.096485, -1.734463, -1.236533, -2.375046
1515636926.94049, -0.37895, 0.088107, -0.004291, -1.702663, -1.232698, -2.338972
1515636926.9505, -0.306244, 0.137726, 0.069461, -1.669573, -1.227589, -2.30284
1515636926.96051, -0.244634, 0.160525, 0.133062, -1.635796, -1.22205, -2.266669
1515636926.97052, -0.17518, 0.161524, 0.172606, -1.603752, -1.217016, -2.232771
1515636926.98053, -0.122176, 0.150304, 0.217391, -1.575113, -1.213133, -2.203642
1515636926.99054, -0.112859, 0.130832, 0.260666, -1.548486, -1.210832, -2.179155
1515636927.00055, -0.122155, 0.118139, 0.304279, -1.519588, -1.209358, -2.155921
1515636927.01056, -0.173617, 0.068447, 0.241763, -1.489618, -1.207961, -2.133713
1515636927.02057, -0.20647, 0.0481, 0.145916, -1.465542, -1.206565, -2.118197
1515636927.03058, -0.204346, 0.060342, 0.041229, -1.448277, -1.204589, -2.111131
1515636927.04059, -0.177741, 0.04677, -0.11194, -1.430215, -1.201003, -2.104624
1515636927.0506, -0.109301, 0.056544, -0.278814, -1.405121, -1.194906, -2.090344
1515636927.06061, 0.004191, 0.05816, -0.332852, -1.372855, -1.185869, -2.06708
1515636927.07062, 0.149133, 0.048345, -0.225745, -1.334981, -1.174695, -2.037954
1515636927.08063, 0.299287, 0.054279, -0.099788, -1.29282, -1.162688, -2.005584
1515636927.09061, 0.363595, 0.075183, 0.010129, -1.249567, -1.150558, -1.972025
1515636927.10062, 0.34265, 0.0938, 0.149973, -1.208675, -1.138414, -1.939822
1515636927.11063, 0.278646, 0.12688, 0.245728, -1.171976, -1.126056, -1.911889
1515636927.12064, 0.225981, 0.154104, 0.23637, -1.139275, -1.113, -1.888458
1515636927.13065, 0.151486, 0.103199, 0.141786, -1.109021, -1.098978, -1.867704
1515636927.14066, 0.080992, 0.044717, -0.026708, -1.079898, -1.083555, -1.846445
1515636927.15067, 0.054991, 0.01404, -0.131782, -1.052509, -1.066916, -1.823591
1515636927.16068, 0.068643, -0.008162, -0.129653, -1.029065, -1.05023, -1.800653
1515636927.17069, 0.077051, -0.01442, -0.0703, -1.01084, -1.034674, -1.779152
1515636927.1807, 0.083795, -0.006452, 0.024257, -0.997297, -1.02047, -1.759914
1515636927.19071, 0.092551, -0.004766, 0.12508, -0.986757, -1.007491, -1.74331
1515636927.20071, 0.087715, -0.003731, 0.191577, -0.977951, -0.995605, -1.729765
1515636927.21072, 0.083286, -0.009731, 0.23071, -0.970232, -0.984625, -1.719636
1515636927.22073, 0.079946, -0.014506, 0.247141, -0.963059, -0.97433, -1.712864
1515636927.23074, 0.069473, -0.036304, 0.244437, -0.956274, -0.964502, -1.709286
1515636927.24075, 0.069887, -0.057149, 0.221758, -0.949812, -0.955089, -1.708236
1515636927.25076, 0.093174, -0.088241, 0.188194, -0.943901, -0.946179, -1.708904
1515636927.26077, 0.108045, -0.118736, 0.163828, -0.938659, -0.938045, -1.710376
1515636927.27078, 0.115782, -0.13718, 0.15462, -0.933796, -0.930875, -1.711959
1515636927.28079, 0.124849, -0.141497, 0.166348, -0.929298, -0.924587, -1.713612
1515636927.2908, 0.142156, -0.139115, 0.206106, -0.924898, -0.919156, -1.715646
1515636927.30081, 0.166692, -0.146073, 0.242215, -0.920205, -0.914816, -1.71842
1515636927.31082, 0.193092, -0.148598, 0.250365, -0.91557, -0.911906, -1.722386
1515636927.3208, 0.221894, -0.133682, 0.252957, -0.911655, -0.910598, -1.728117
1515636927.33081, 0.244041, -0.128131, 0.272035, -0.908283, -0.910903, -1.736152
1515636927.34082, 0.26334, -0.141591, 0.263917, -0.904777, -0.912899, -1.746798
1515636927.35083, 0.274775, -0.159177, 0.171012, -0.901554, -0.916966, -1.760626
1515636927.36084, 0.266746, -0.195882, 0.01815, -0.899523, -0.923453, -1.777184
1515636927.37085, 0.227321, -0.234331, -0.135303, -0.897861, -0.931716, -1.79341
1515636927.38086, 0.130312, -0.249864, -0.273758, -0.895314, -0.939766, -1.80542
1515636927.39087, 0.030149, -0.258236, -0.363063, -0.893077, -0.945965, -1.811269
1515636927.40088, -0.073188, -0.245514, -0.368117, -0.893754, -0.950342, -1.812518
1515636927.41088, -0.102916, -0.204768, -0.323766, -0.897823, -0.954439, -1.814554
1515636927.42089, -0.085752, -0.108267, -0.301013, -0.896614, -0.958588, -1.820566
1515636927.4309, -0.150334, 0.00905, -0.494182, -0.883345, -0.960756, -1.827565
1515636927.44091, -0.314085, 0.065014, -0.746219, -0.866625, -0.957973, -1.828587
1515636927.45092, -0.396252, 0.029205, -0.887555, -0.864658, -0.95126, -1.826935
1515636927.46093, -0.393798, -0.001867, -0.651426, -0.883688, -0.945328, -1.82805
1515636927.47094, -0.258163, -0.022441, -0.233402, -0.915941, -0.941465, -1.832302
1515636927.48094, -0.087213, -0.08852, -0.005092, -0.950187, -0.939098, -1.835332
1515636927.49095, 0.058277, 0.078043, 0.152746, -0.97869, -0.93647, -1.834917
1515636927.50096, 0.082895, 0.330269, 0.332914, -0.99784, -0.933057, -1.832386
1515636927.51097, 0.034027, 0.366729, 0.37729, -1.010809, -0.930436, -1.832073
1515636927.52098, 0.068985, 0.31568, 0.352082, -1.021469, -0.930298, -1.837148
1515636927.53099, 0.141711, 0.295739, 0.428699, -1.02679, -0.931724, -1.845377
1515636927.541, 0.155484, 0.306374, 0.426329, -1.021837, -0.93339, -1.853943
1515636927.55101, 0.134958, 0.307742, 0.306415, -1.005682, -0.934965, -1.863143
1515636927.56099, 0.053296, 0.260736, 0.058067, -0.983395, -0.936471, -1.873379
1515636927.571, -0.106427, 0.155337, -0.30189, -0.968168, -0.939139, -1.883569
1515636927.58101, -0.239209, 0.053959, -0.408045, -0.97154, -0.943569, -1.891803
1515636927.59102, -0.15027, 0.142144, 0.35575, -0.98855, -0.947865, -1.894963
1515636927.60103, -0.14509, 0.140366, 0.343086, -1.011662, -0.950918, -1.894796
1515636927.61104, 0.082592, 0.247253, 0.811202, -1.039292, -0.954289, -1.898457
1515636927.62105, 0.217599, 0.236193, 0.991743, -1.068911, -0.958839, -1.911892
1515636927.63106, 0.299145, 0.164232, 1.019479, -1.094062, -0.964092, -1.934073
1515636927.64107, 0.364212, 0.094699, 0.875247, -1.109073, -0.969381, -1.959959
1515636927.65108, 0.466875, 0.069811, 0.678111, -1.113697, -0.974772, -1.986006
1515636927.66109, 0.589258, 0.029778, 0.534891, -1.10979, -0.980686, -2.011727
1515636927.6711, 0.585761, -0.010114, 0.326885, -1.095565, -0.987447, -2.035533
1515636927.68111, 0.374334, -0.020821, -0.069206, -1.071783, -0.995634, -2.054417
1515636927.69112, 0.091725, -0.032397, -1.024293, -1.052572, -1.006743, -2.071269
1515636927.70113, 0.012121, -0.023594, -0.695733, -1.067579, -1.024757, -2.099511
1515636927.71114, 0.049883, -0.02131, -0.340915, -1.099998, -1.043297, -2.126041
1515636927.72115, 0.024608, -0.05247, -0.133289, -1.127356, -1.056671, -2.139006
1515636927.73116, 0.040045, -0.051561, 0.036639, -1.145973, -1.065376, -2.142308
1515636927.74117, 0.029179, -0.070658, 0.178673, -1.160639, -1.072243, -2.144997
1515636927.75118, 0.003175, -0.100071, 0.204666, -1.173527, -1.07933, -2.151266
1515636927.76119, -0.034526, -0.122371, 0.125956, -1.185643, -1.087096, -2.162263
1515636927.7712, -0.050408, -0.144101, 0.006788, -1.19681, -1.095132, -2.176344
1515636927.78121, -0.019136, -0.136585, -0.050468, -1.205908, -1.103038, -2.190259
1515636927.79122, -0.044705, -0.125851, -0.057585, -1.210683, -1.110181, -2.201154
1515636927.8012, -0.112071, -0.089692, -0.054354, -1.211114, -1.116582, -2.207747
1515636927.81121, -0.196642, -0.068113, -0.000702, -1.210937, -1.122102, -2.21205
1515636927.82122, -0.230011, -0.064186, 0.053283, -1.21354, -1.126541, -2.216581
1515636927.83123, -0.219142, -0.059817, 0.07709, -1.220606, -1.129843, -2.223305
1515636927.84124, -0.188081, -0.065732, 0.075739, -1.231856, -1.132447, -2.232804
1515636927.85124, -0.163224, -0.089866, 0.054976, -1.245404, -1.134525, -2.24431
1515636927.86125, -0.151371, -0.107303, 0.021913, -1.258686, -1.136035, -2.256032
1515636927.87126, -0.13522, -0.081979, 0.016923, -1.26994, -1.136991, -2.266255
1515636927.88127, -0.119365, -0.06367, 0.027686, -1.278524, -1.13743, -2.274747
1515636927.89128, -0.096763, -0.068981, 0.033784, -1.284629, -1.137688, -2.282378
1515636927.90129, -0.081438, -0.07448, -0.018855, -1.288935, -1.138174, -2.29052
1515636927.9113, -0.08682, -0.078883, -0.111928, -1.29242, -1.139069, -2.299718
1515636927.92131, -0.083561, -0.07727, -0.199741, -1.296007, -1.140138, -2.309161
1515636927.93132, -0.08959, -0.088455, -0.241783, -1.300101, -1.14098, -2.31741
1515636927.94133, -0.092615, -0.117298, -0.199511, -1.303672, -1.141209, -2.322474
1515636927.95134, -0.085914, -0.118423, -0.072429, -1.304721, -1.140502, -2.322935
1515636927.96135, -0.082872, -0.092304, 0.076254, -1.30229, -1.138796, -2.319776
1515636927.97136, -0.056271, -0.057954, 0.130086, -1.298279, -1.136428, -2.316803
1515636927.98137, -0.03234, -0.04931, 0.151306, -1.296789, -1.13406, -2.318247
1515636927.99138, -0.017946, -0.044967, 0.142346, -1.299851, -1.132705, -2.325891
1515636928.00139, -0.021627, -0.02218, 0.093466, -1.30748, -1.132691, -2.338861
1515636928.0114, -0.024075, -0.014803, 0.030046, -1.319558, -1.133611, -2.356078
1515636928.02141, -0.01462, -0.013911, -0.070051, -1.335626, -1.135147, -2.376769
1515636928.03142, -0.016075, -0.026991, -0.13065, -1.35486, -1.137184, -2.399216
1515636928.0414, -0.028649, -0.023192, -0.2213, -1.374653, -1.13937, -2.420701
1515636928.05141, -0.047871, -0.008807, -0.273987, -1.393083, -1.141426, -2.439064
1515636928.06142, -0.073121, -0.002686, -0.254012, -1.408173, -1.142999, -2.452256
1515636928.07143, -0.108305, 0.008522, -0.194038, -1.418266, -1.143828, -2.459651
1515636928.08144, -0.165622, 0.046632, -0.120685, -1.422375, -1.143879, -2.461069
1515636928.09145, -0.206082, 0.1409, -0.035532, -1.421778, -1.143255, -2.457297
1515636928.10146, -0.251976, 0.253875, 0.057934, -1.419675, -1.142376, -2.450214
1515636928.11147, -0.268947, 0.338615, 0.17557, -1.420022, -1.141843, -2.443454
1515636928.12148, -0.263158, 0.345148, 0.175477, -1.423196, -1.142021, -2.439672
1515636928.13149, -0.243549, 0.332838, 0.150991, -1.425927, -1.142966, -2.436178
1515636928.1415, -0.238059, 0.312955, 0.109828, -1.425381, -1.144628, -2.431133
1515636928.15151, -0.24738, 0.241431, -0.008248, -1.420827, -1.147231, -2.426094
1515636928.16152, -0.288976, 0.162297, -0.130944, -1.411521, -1.150254, -2.421002
1515636928.17153, -0.2983, 0.191998, -0.21902, -1.392806, -1.152784, -2.411309
1515636928.18154, -0.290039, 0.09473, -0.200646, -1.360033, -1.154238, -2.390434
1515636928.19155, -0.264852, -0.002224, -0.122791, -1.318572, -1.153481, -2.361959
1515636928.20156, -0.173018, 0.000896, -0.079667, -1.275953, -1.15065, -2.333887
1515636928.21157, -0.071434, -0.020253, -0.085804, -1.234536, -1.145813, -2.30804
1515636928.22158, 0.020788, -0.016997, -0.089914, -1.194654, -1.138749, -2.284345
1515636928.23159, 0.128393, -0.021146, -0.091752, -1.156902, -1.129689, -2.262751
1515636928.2416, 0.233916, -0.022591, -0.093698, -1.122111, -1.11911, -2.242412
1515636928.25161, 0.31013, 0.021144, -0.11448, -1.089385, -1.107529, -2.221196
1515636928.26162, 0.329071, 0.105271, -0.123468, -1.058304, -1.094938, -2.197713
1515636928.27162, 0.224331, 0.133353, -0.049438, -1.029231, -1.080991, -2.17207
1515636928.28163, 0.162961, 0.131473, 0.043127, -1.003948, -1.066849, -2.146171
1515636928.29161, 0.125291, 0.172248, 0.138116, -0.983799, -1.053972, -2.12139
1515636928.30162, 0.068458, 0.168639, 0.206157, -0.967423, -1.042645, -2.097806
1515636928.31163, 0.023021, 0.192389, 0.226093, -0.953137, -1.032305, -2.075727
1515636928.32164, -0.027097, 0.185626, 0.246174, -0.939491, -1.022309, -2.056002
1515636928.33165, -0.088348, 0.137877, 0.208755, -0.92513, -1.012332, -2.039655
1515636928.34166, -0.108894, 0.093542, 0.144213, -0.909834, -1.002149, -2.027058
1515636928.35167, -0.082371, 0.055724, 0.119477, -0.894112, -0.991538, -2.017783
1515636928.36168, -0.055974, 0.007717, 0.107068, -0.878427, -0.98068, -2.011429
1515636928.37169, -0.009837, -0.034204, 0.073533, -0.863839, -0.969888, -2.007818
1515636928.3817, 0.05736, -0.067485, 0.077946, -0.851344, -0.95918, -2.006578
1515636928.39171, 0.11286, -0.110057, 0.094822, -0.840793, -0.948499, -2.006848
1515636928.40172, 0.157893, -0.14328, 0.100885, -0.832152, -0.938187, -2.007901
1515636928.41168, 0.183224, -0.1585, 0.119671, -0.826086, -0.928611, -2.009634
1515636928.42169, 0.215934, -0.158254, 0.14161, -0.822836, -0.919894, -2.012316
1515636928.4317, 0.251898, -0.156556, 0.175963, -0.822097, -0.912069, -2.015845
1515636928.44171, 0.284331, -0.151555, 0.208219, -0.8228, -0.905225, -2.019808
1515636928.45172, 0.29389, -0.129975, 0.232093, -0.824281, -0.899484, -2.024194
1515636928.46173, 0.283231, -0.117761, 0.245722, -0.826046, -0.894873, -2.029117
1515636928.47174, 0.274254, -0.107039, 0.246204, -0.828221, -0.891304, -2.034748
1515636928.48175, 0.261335, -0.099558, 0.258262, -0.831037, -0.888776, -2.041148
1515636928.49176, 0.263209, -0.093216, 0.265381, -0.835222, -0.887647, -2.048298
1515636928.50176, 0.243792, -0.098797, 0.26335, -0.841522, -0.888512, -2.056408
1515636928.51177, 0.19909, -0.098949, 0.253502, -0.850271, -0.891421, -2.065557
1515636928.52178, 0.166458, -0.106185, 0.241828, -0.862076, -0.89581, -2.075856
1515636928.53176, 0.123603, -0.13454, 0.231696, -0.87698, -0.901625, -2.087368
1515636928.54177, 0.168228, -0.173696, 0.183079, -0.894619, -0.908966, -2.100131
1515636928.55178, 0.233124, -0.184787, 0.129022, -0.914647, -0.917201, -2.113183
1515636928.56179, 0.231266, -0.249326, 0.035302, -0.936433, -0.925264, -2.126018
1515636928.5718, 0.194802, -0.254171, -0.0433, -0.959503, -0.933873, -2.13961
1515636928.58181, 0.140159, -0.213851, -0.104672, -0.983532, -0.94451, -2.154783
1515636928.59182, 0.10013, -0.195727, -0.17645, -1.00901, -0.956567, -2.171581
1515636928.60183, 0.061288, -0.202794, -0.263825, -1.035726, -0.968749, -2.189435
1515636928.61184, 0.064151, -0.241058, -0.386678, -1.061534, -0.980177, -2.207309
1515636928.62185, 0.100924, -0.255804, -0.489682, -1.083735, -0.990766, -2.225171
1515636928.63186, 0.071949, -0.184197, -0.529904, -1.104303, -1.000619, -2.24349
1515636928.64187, -0.050723, -0.063002, -0.407355, -1.128168, -1.009024, -2.258477
1515636928.65188, -0.228038, 0.041772, 0.011295, -1.16159, -1.016387, -2.269428
1515636928.66189, -0.325849, 0.100426, 0.353369, -1.204985, -1.022886, -2.279625
1515636928.6719, -0.305101, 0.086978, 0.449926, -1.254073, -1.027246, -2.291054
1515636928.68191, -0.2068, 0.046637, 0.334463, -1.305504, -1.028627, -2.304909
1515636928.69192, -0.092153, 0.025071, 0.192159, -1.357264, -1.028017, -2.322453
1515636928.70193, -0.027742, 0.142002, 0.058778, -1.406558, -1.027421, -2.344024
1515636928.71194, -0.00927, 0.375263, -0.054358, -1.452766, -1.028545, -2.371268
1515636928.72195, -0.036712, 0.571197, -0.209809, -1.499915, -1.031129, -2.409672
1515636928.73196, 0.139856, 0.756267, -0.115881, -1.547342, -1.032744, -2.460334
1515636928.74197, 0.384254, 0.629743, 0.04635, -1.5761, -1.031817, -2.505999
1515636928.75198, 0.286599, 0.424915, -0.502335, -1.579057, -1.031449, -2.536468
1515636928.76199, 0.040566, 0.161752, -0.746834, -1.582639, -1.034537, -2.560481
1515636928.77197, -0.112924, 0.176053, -0.198946, -1.596226, -1.040292, -2.57404
1515636928.78198, -0.117652, 0.270183, 0.159333, -1.615799, -1.046478, -2.573043
1515636928.79199, 0.216561, 0.26429, 0.377003, -1.637841, -1.050493, -2.56733
1515636928.802, 0.707375, 0.036142, 0.256603, -1.659033, -1.053042, -2.569634
1515636928.81201, 0.925761, -0.16329, 0.014567, -1.674478, -1.057219, -2.572869
1515636928.82202, 0.800991, 0.060824, 0.161582, -1.676692, -1.064769, -2.561733
1515636928.83203, 0.55649, 0.300753, 0.434118, -1.671704, -1.073113, -2.542258
1515636928.84204, 0.365999, 0.33774, 0.478472, -1.673431, -1.07964, -2.531811
1515636928.85205, 0.196638, 0.284864, 0.263989, -1.695462, -1.084394, -2.543918
1515636928.86206, 0.087184, 0.221273, 0.168385, -1.740255, -1.087948, -2.575559
1515636928.87207, 0.00203, 0.136822, 0.220308, -1.790149, -1.0909, -2.606262
1515636928.88207, 0.020197, 0.073262, 0.178542, -1.827515, -1.093368, -2.622835
1515636928.89208, 0.065247, -0.014104, 0.028899, -1.85342, -1.094651, -2.634183
1515636928.90209, 0.076324, -0.104448, -0.04966, -1.874789, -1.095344, -2.647517
1515636928.9121, 0.009121, -0.07832, -0.129959, -1.893173, -1.096869, -2.659479
1515636928.92211, -0.089891, -0.086062, -0.168721, -1.905611, -1.100403, -2.662491
1515636928.93212, -0.140322, -0.100408, -0.191205, -1.911009, -1.106131, -2.653196
1515636928.94213, -0.06101, -0.00212, -0.045137, -1.916866, -1.112043, -2.641033
1515636928.95214, -0.042241, -0.023346, 0.126716, -1.928256, -1.115295, -2.637696
1515636928.96215, -0.022664, -0.066562, 0.113209, -1.94389, -1.11617, -2.643557
1515636928.97216, 0.008924, -0.099703, -0.057672, -1.95941, -1.116203, -2.651057
1515636928.98217, 0.030223, -0.152976, -0.1499, -1.971594, -1.117223, -2.653431
