time, accel x, accel y, accel z, gyro x, gyro y, gyro z
1515638022.55455, -0.021223, 0.018671, 0.055726, 0.088985, 0.192091, 2.782881
1515638022.56456, -0.019076, 0.014428, 0.059566, 0.08635, 0.192028, 2.783949
1515638022.57457, -0.018709, 0.011621, 0.065042, 0.083325, 0.192076, 2.785207
1515638022.58458, -0.01568, 0.013693, 0.069352, 0.079806, 0.191995, 2.786744
1515638022.59459, -0.022366, 0.011687, 0.075289, 0.075608, 0.191583, 2.788675
1515638022.6046, -0.038463, 0.012619, 0.065845, 0.070532, 0.190838, 2.791143
1515638022.61458, -0.049364, 0.011802, 0.044228, 0.064453, 0.190037, 2.794197
1515638022.62459, -0.056168, 0.006236, 0.022175, 0.057209, 0.189684, 2.797712
1515638022.6346, -0.056038, 0.002567, 0.019243, 0.049071, 0.190407, 2.801338
1515638022.64461, -0.050231, 0.005817, 0.018538, 0.040648, 0.192614, 2.804673
1515638022.65462, -0.048504, 0.0103, 0.015993, 0.032485, 0.196172, 2.807627
1515638022.66463, -0.046878, 0.010562, 0.030223, 0.024717, 0.200485, 2.810497
1515638022.67464, -0.045104, 0.005816, 0.049156, 0.017315, 0.205049, 2.813608
1515638022.68465, -0.040198, 0.000268, 0.066365, 0.0101, 0.209609, 2.817128
1515638022.69466, -0.046591, -0.006299, 0.058248, 0.003019, 0.213957, 2.821008
1515638022.70467, -0.036081, -0.013239, 0.033764, -0.003757, 0.217694, 2.824932
1515638022.71468, -0.026818, -0.023689, 0.029652, -0.009952, 0.220417, 2.82855
1515638022.72469, -0.02307, -0.024912, 0.020095, -0.0153, 0.222087, 2.831751
1515638022.7347, -0.010875, -0.021613, 0.013879, -0.019954, 0.222716, 2.834464
1515638022.74471, -0.002529, -0.011736, 0.007568, -0.024506, 0.222518, 2.836848
1515638022.75472, 0.011714, 0.000287, 0.001161, -0.029471, 0.222126, 2.839228
1515638022.76473, 0.024466, 0.011102, -0.012635, -0.035179, 0.222013, 2.84175
1515638022.77474, 0.030275, 0.018826, -0.015374, -0.04183, 0.222297, 2.844459
1515638022.78475, 0.029548, 0.025277, -0.008746, -0.049283, 0.223123, 2.847441
1515638022.79476, 0.025581, 0.027305, -0.015341, -0.057452, 0.224734, 2.850852
1515638022.80477, 0.023509, 0.027392, -0.018637, -0.066372, 0.227375, 2.854708
1515638022.81478, 0.033436, 0.026468, -0.018656, -0.07566, 0.230892, 2.858915
1515638022.82479, 0.041039, 0.015575, -0.011612, -0.084765, 0.234594, 2.863346
1515638022.8348, 0.042891, 0.003481, 0.008595, -0.093211, 0.237991, 2.867956
1515638022.8448, 0.04901, -0.006653, 0.019775, -0.10051, 0.240989, 2.872692
1515638022.85481, 0.047008, -0.021434, 0.035769, -0.106553, 0.243807, 2.877327
1515638022.86482, 0.046276, -0.0328, 0.04389, -0.111673, 0.246986, 2.881824
1515638022.87483, 0.042949, -0.051467, 0.063289, -0.116332, 0.250853, 2.886099
1515638022.88484, 0.035759, -0.065209, 0.084449, -0.120646, 0.255446, 2.890037
1515638022.89485, 0.044121, -0.072433, 0.098603, -0.124802, 0.260521, 2.893697
1515638022.90486, 0.062162, -0.094755, 0.124061, -0.129191, 0.26569, 2.89697
1515638022.91487, 0.069894, -0.118646, 0.140604, -0.133912, 0.270553, 2.899734
1515638022.92488, 0.076662, -0.130963, 0.149566, -0.139157, 0.274479, 2.902064
1515638022.93489, 0.065536, -0.129235, 0.148772, -0.144935, 0.277163, 2.904031
1515638022.94487, 0.056745, -0.122517, 0.120068, -0.151187, 0.278626, 2.905572
1515638022.95488, 0.051886, -0.118133, 0.088487, -0.158086, 0.278949, 2.906647
1515638022.96489, 0.039288, -0.109483, 0.058163, -0.165527, 0.278375, 2.907237
1515638022.9749, 0.032478, -0.101034, 0.024975, -0.173214, 0.277324, 2.90727
1515638022.98491, 0.034303, -0.099842, -0.001711, -0.180922, 0.275977, 2.906768
1515638022.99492, 0.034466, -0.090552, -0.022753, -0.188671, 0.274674, 2.905905
1515638023.00493, 0.04209, -0.083388, -0.034096, -0.196596, 0.273795, 2.904924
1515638023.01494, 0.052906, -0.078693, -0.028371, -0.204906, 0.273521, 2.90402
1515638023.02495, 0.06087, -0.080089, -0.015434, -0.213807, 0.273894, 2.903476
1515638023.03496, 0.058857, -0.081978, -0.013448, -0.223325, 0.274451, 2.90331
1515638023.04497, 0.058727, -0.081967, -0.016318, -0.232999, 0.274685, 2.903278
1515638023.05498, 0.060385, -0.074976, -0.026299, -0.242457, 0.274719, 2.903256
1515638023.06499, 0.057392, -0.067377, -0.024993, -0.25162, 0.275306, 2.903351
1515638023.075, 0.056654, -0.065226, -0.016659, -0.260655, 0.276955, 2.903747
1515638023.08501, 0.052501, -0.066334, -0.00556, -0.269638, 0.279388, 2.904294
1515638023.09502, 0.04079, -0.07058, 0.006169, -0.278118, 0.281957, 2.904315
1515638023.10503, 0.02842, -0.067831, 0.020626, -0.285464, 0.284629, 2.903416
1515638023.11504, 0.015228, -0.062601, 0.028005, -0.291198, 0.287329, 2.90143
1515638023.12505, 0.014008, -0.048912, 0.03958, -0.295259, 0.289607, 2.898168
1515638023.13506, 0.021198, -0.036812, 0.040161, -0.297707, 0.291391, 2.893931
1515638023.14507, 0.041778, -0.055184, 0.04114, -0.299128, 0.292203, 2.889031
1515638023.15508, 0.043113, -0.073062, 0.002705, -0.299907, 0.291173, 2.883942
1515638023.16509, 0.021261, 0.025858, 0.105323, -0.299443, 0.287954, 2.87865
1515638023.1751, 0.037758, -0.08731, -0.152138, -0.29624, 0.282284, 2.872402
1515638023.18511, -0.006738, -0.090613, -0.244036, -0.294639, 0.27515, 2.86676
1515638023.19512, -0.016708, -0.025635, -0.265487, -0.294091, 0.268552, 2.861265
1515638023.20513, -0.018592, -0.035699, -0.333211, -0.293054, 0.262865, 2.855248
1515638023.21514, -0.009793, -0.044258, -0.354285, -0.291421, 0.257781, 2.849266
1515638023.22515, 0.017255, -0.038035, -0.32058, -0.28836, 0.253221, 2.843553
1515638023.23516, -0.013553, -0.024087, -0.265927, -0.282203, 0.24908, 2.837905
1515638023.24517, -0.010715, 0.034845, -0.245189, -0.272377, 0.245306, 2.831559
1515638023.25517, 0.026119, 0.038706, -0.160723, -0.259754, 0.2418, 2.825085
1515638023.26518, 0.041286, 0.011308, -0.115388, -0.245001, 0.238649, 2.818958
1515638023.27516, 0.059599, 0.000557, -0.07278, -0.229697, 0.235971, 2.813171
1515638023.28517, 0.070626, 0.002271, -0.043513, -0.215233, 0.233639, 2.807676
1515638023.29518, 0.0499, -0.014922, -0.023512, -0.202518, 0.231432, 2.802524
1515638023.30519, 0.035764, -0.013717, -0.034688, -0.191856, 0.229503, 2.797699
1515638023.3152, 0.02638, -0.001177, -0.046197, -0.183447, 0.228295, 2.793039
1515638023.32521, 0.017505, 0.012146, -0.04834, -0.176971, 0.22792, 2.788472
1515638023.33522, 0.019436, 0.028736, -0.044166, -0.171698, 0.228253, 2.784213
1515638023.34523, 0.034421, 0.043108, -0.036878, -0.166776, 0.22916, 2.780544
1515638023.35524, 0.040792, 0.054479, -0.030785, -0.161697, 0.230699, 2.777719
1515638023.36525, 0.036537, 0.056345, -0.013892, -0.156446, 0.232851, 2.775893
1515638023.37526, 0.028917, 0.05193, 0.006048, -0.151105, 0.235403, 2.775019
1515638023.38527, 0.015049, 0.045221, 0.013019, -0.14586, 0.238202, 2.774945
1515638023.39528, 0.010377, 0.042756, 0.01344, -0.141123, 0.241225, 2.775425
1515638023.40529, 0.01133, 0.049119, 0.017469, -0.137436, 0.244527, 2.776236
1515638023.4153, -0.001343, 0.058471, 0.026111, -0.135165, 0.248018, 2.777246
1515638023.42531, -0.013339, 0.057959, 0.02145, -0.134166, 0.251379, 2.778329
1515638023.43532, -0.016173, 0.056987, 0.01638, -0.134094, 0.254205, 2.779297
1515638023.44533, -0.026206, 0.058401, 0.015824, -0.134462, 0.256297, 2.780042
1515638023.45534, -0.034971, 0.066675, 0.01352, -0.134626, 0.257547, 2.780537
1515638023.46535, -0.02728, 0.076888, 0.002994, -0.134405, 0.25801, 2.780829
1515638023.47536, -0.025834, 0.087226, -0.000672, -0.13386, 0.258002, 2.781037
1515638023.48537, -0.022623, 0.098071, -0.005402, -0.133132, 0.257951, 2.78133
1515638023.49538, -0.014396, 0.102907, -0.012759, -0.13236, 0.258107, 2.781756
1515638023.50539, -0.017019, 0.102322, -0.010914, -0.131711, 0.258622, 2.782507
1515638023.5154, -0.024788, 0.103775, 0.002041, -0.131039, 0.259494, 2.783666
1515638023.52541, -0.022445, 0.101615, 0.012548, -0.130227, 0.260638, 2.78509
1515638023.53539, -0.02117, 0.090677, 0.025198, -0.129341, 0.261904, 2.786524
1515638023.5454, -0.029884, 0.076866, 0.037111, -0.128393, 0.263087, 2.787847
1515638023.55541, -0.035452, 0.070023, 0.045797, -0.127295, 0.264012, 2.788944
1515638023.56542, -0.031869, 0.06984, 0.050336, -0.126117, 0.264598, 2.789791
1515638023.57543, -0.023639, 0.066841, 0.044967, -0.125109, 0.264763, 2.79048
1515638023.58544, -0.027046, 0.067045, 0.044443, -0.124316, 0.264563, 2.791189
1515638023.59545, -0.028119, 0.07237, 0.03152, -0.123674, 0.264089, 2.791907
1515638023.60542, -0.024602, 0.06994, 0.017796, -0.123248, 0.263485, 2.792634
1515638023.61543, -0.025846, 0.070606, 0.009483, -0.122965, 0.262894, 2.793382
1515638023.62544, -0.02952, 0.077369, 0.009645, -0.12267, 0.262518, 2.794158
1515638023.63545, -0.031226, 0.079714, 0.01019, -0.122336, 0.26245, 2.794927
1515638023.64546, -0.030179, 0.070261, 0.013028, -0.122099, 0.262679, 2.795701
1515638023.65547, -0.028628, 0.06569, 0.021352, -0.121963, 0.263065, 2.796432
1515638023.66548, -0.032967, 0.067234, 0.028036, -0.121872, 0.2634, 2.797097
1515638023.67549, -0.037424, 0.065365, 0.032165, -0.121781, 0.263582, 2.797731
1515638023.6855, -0.033054, 0.061201, 0.028556, -0.121677, 0.263599, 2.798356
1515638023.69551, -0.033585, 0.05587, 0.019242, -0.121597, 0.263482, 2.79888
1515638023.70552, -0.035979, 0.058692, 0.019523, -0.121384, 0.26326, 2.799286
1515638023.71553, -0.038801, 0.062278, 0.017791, -0.120898, 0.262976, 2.799555
1515638023.72554, -0.036793, 0.058321, 0.014546, -0.120342, 0.262734, 2.799709
1515638023.73555, -0.034549, 0.052244, 0.010307, -0.119892, 0.262571, 2.799692
1515638023.74556, -0.023778, 0.050553, 0.010067, -0.1196, 0.262448, 2.79941
1515638023.75557, -0.017416, 0.049833, 0.01041, -0.119403, 0.262272, 2.798853
1515638023.76558, -0.016041, 0.050735, 0.010537, -0.119107, 0.26191, 2.798172
1515638023.77559, -0.010165, 0.055095, 0.008529, -0.118546, 0.261243, 2.797473
1515638023.7856, -0.009363, 0.054407, 0.008323, -0.11773, 0.260325, 2.796859
1515638023.79561, -0.00986, 0.049654, 0.003978, -0.11683, 0.259275, 2.796454
1515638023.80562, -0.010088, 0.047942, 0.005487, -0.116019, 0.258198, 2.796278
1515638023.81563, -0.016037, 0.038031, 0.005074, -0.11553, 0.257212, 2.796332
1515638023.82564, -0.022821, 0.026615, 0.004204, -0.115448, 0.256405, 2.796439
1515638023.83565, -0.006784, 0.041944, 0.099705, -0.115356, 0.255972, 2.796386
1515638023.84566, 0.018639, -0.008956, 0.016893, -0.116047, 0.255676, 2.796315
1515638023.85567, 0.028493, 0.006774, 0.059494, -0.118807, 0.254129, 2.796515
1515638023.86568, 0.008504, 0.010098, 0.032676, -0.121905, 0.251668, 2.796945
1515638023.87569, -0.011591, 0.021879, 0.016454, -0.124621, 0.249244, 2.797439
1515638023.8857, -0.017205, 0.020425, -0.013713, -0.126852, 0.247508, 2.797799
1515638023.89571, -0.014627, 0.001851, -0.023199, -0.128734, 0.246842, 2.79802
1515638023.90572, -0.008147, -0.005667, -0.008483, -0.130411, 0.247336, 2.798261
1515638023.91573, -0.016703, -0.019137, -0.003662, -0.132173, 0.248614, 2.79877
1515638023.92574, -0.022369, -0.01909, 0.004117, -0.133912, 0.250394, 2.799583
1515638023.93572, -0.016076, -0.040857, 0.02112, -0.135408, 0.252986, 2.800722
1515638023.94573, -0.028776, -0.051465, 0.04565, -0.136788, 0.256562, 2.80198
1515638023.95574, -0.030455, -0.026692, 0.112584, -0.137585, 0.260927, 2.802817
1515638023.96575, -0.008608, -0.054107, 0.157314, -0.137694, 0.265642, 2.803053
1515638023.97576, 0.003348, -0.0783, 0.187531, -0.138008, 0.26989, 2.803029
1515638023.98577, 0.002615, -0.07235, 0.222423, -0.138865, 0.27304, 2.802786
1515638023.99577, -0.007923, -0.070116, 0.237176, -0.140244, 0.274981, 2.80222
1515638024.00578, -0.016793, -0.074628, 0.228732, -0.142301, 0.275668, 2.801214
1515638024.01579, -0.014283, -0.075279, 0.228555, -0.144908, 0.274991, 2.799615
1515638024.0258, -0.044308, -0.064521, 0.171823, -0.147995, 0.273201, 2.797327
1515638024.03581, -0.052786, -0.046492, 0.13832, -0.151618, 0.270817, 2.794392
1515638024.04582, -0.06222, -0.03316, 0.103432, -0.15572, 0.268311, 2.790884
1515638024.05583, -0.064394, -0.021887, 0.073595, -0.160142, 0.265934, 2.786799
1515638024.06584, -0.06539, -0.013234, 0.055965, -0.164314, 0.263675, 2.782
1515638024.07585, -0.053717, -0.007791, 0.031045, -0.167714, 0.261269, 2.776572
1515638024.08586, -0.032957, -0.003247, 0.024999, -0.169906, 0.258551, 2.770783
1515638024.09587, -0.027013, 0.001325, 0.034987, -0.170239, 0.255437, 2.764903
1515638024.10588, -0.023381, 0.006242, 0.039537, -0.168625, 0.251862, 2.759245
1515638024.11589, -0.011364, 0.005719, 0.051097, -0.16549, 0.247826, 2.754034
1515638024.1259, 0.003626, 0.009066, 0.069585, -0.161777, 0.24349, 2.74959
1515638024.13591, 0.002496, 0.012131, 0.081605, -0.158694, 0.239261, 2.746224
1515638024.14592, -0.001459, 0.017257, 0.098086, -0.157316, 0.235759, 2.7441
1515638024.15593, -0.010793, 0.021371, 0.114709, -0.157976, 0.233368, 2.743119
1515638024.16594, -0.023067, 0.013479, 0.120776, -0.160415, 0.231671, 2.742877
1515638024.17595, -0.02452, 0.004958, 0.121302, -0.164321, 0.230066, 2.743171
1515638024.18596, -0.031266, 0.008927, 0.120807, -0.1695, 0.228469, 2.744151
1515638024.19597, -0.048624, 0.027055, 0.12656, -0.175672, 0.227185, 2.745765
1515638024.20598, -0.061076, 0.043371, 0.130097, -0.182616, 0.226579, 2.747844
1515638024.21599, -0.064598, 0.047748, 0.123779, -0.190306, 0.226717, 2.750186
1515638024.226, -0.060646, 0.037861, 0.106891, -0.198532, 0.226875, 2.752337
1515638024.23601, -0.067721, 0.030433, 0.097944, -0.206818, 0.226173, 2.753935
1515638024.24602, -0.086091, 0.030576, 0.096572, -0.214818, 0.224426, 2.755212
1515638024.25603, -0.115821, 0.050707, 0.114756, -0.22212, 0.222177, 2.756497
1515638024.26604, -0.129487, 0.079004, 0.098334, -0.22942, 0.21987, 2.757839
1515638024.27602, -0.119842, 0.095351, 0.103718, -0.237693, 0.217968, 2.759132
1515638024.28603, -0.114991, 0.106751, 0.111996, -0.247597, 0.216892, 2.760575
1515638024.29604, -0.120382, 0.133014, 0.149612, -0.259234, 0.216973, 2.762519
1515638024.30605, -0.147283, 0.171396, 0.199709, -0.272303, 0.21801, 2.765212
1515638024.31606, -0.170937, 0.197289, 0.252893, -0.286522, 0.219447, 2.768354
1515638024.32607, -0.181354, 0.206202, 0.298058, -0.301804, 0.220669, 2.771414
1515638024.33608, -0.186543, 0.177488, 0.295202, -0.317833, 0.220719, 2.773543
1515638024.34609, -0.185097, 0.124144, 0.256931, -0.333435, 0.218265, 2.773301
1515638024.3561, -0.185402, 0.103262, 0.22406, -0.347206, 0.212274, 2.769693
1515638024.36611, -0.192508, 0.118418, 0.180219, -0.358547, 0.202876, 2.76293
1515638024.37612, -0.185628, 0.147582, 0.116604, -0.367885, 0.191273, 2.753742
1515638024.38613, -0.15131, 0.167919, 0.060663, -0.37627, 0.178974, 2.743125
1515638024.39614, -0.116906, 0.172167, 0.026273, -0.38493, 0.167146, 2.732161
1515638024.40614, -0.085862, 0.163093, 0.014498, -0.394797, 0.156622, 2.721824
1515638024.41615, -0.050345, 0.154742, 0.024454, -0.406497, 0.147648, 2.712792
1515638024.42616, -0.016404, 0.134253, 0.047789, -0.419992, 0.139759, 2.705161
1515638024.43617, 0.014395, 0.112017, 0.080033, -0.434868, 0.132023, 2.698692
1515638024.44618, 0.034786, 0.083507, 0.107257, -0.450288, 0.123478, 2.692901
1515638024.45619, 0.05135, 0.042267, 0.094976, -0.465201, 0.113249, 2.686992
1515638024.4662, 0.058456, 0.001352, 0.065527, -0.478749, 0.100843, 2.680231
1515638024.47621, 0.056615, -0.018581, 0.03548, -0.490436, 0.086645, 2.672646
1515638024.48622, 0.053495, -0.0077, 0.011219, -0.500562, 0.07183, 2.66466
1515638024.49623, 0.062804, 0.005332, -0.003073, -0.509933, 0.057243, 2.656769
1515638024.50624, 0.073137, -0.004286, -0.006661, -0.519149, 0.042984, 2.649108
1515638024.51625, 0.082363, -0.017985, 0.00036, -0.528471, 0.028421, 2.641669
1515638024.52626, 0.076549, -0.015084, 0.018909, -0.537941, 0.013038, 2.634453
1515638024.53624, 0.06486, -0.009209, 0.02971, -0.547943, -0.002968, 2.627672
1515638024.54625, 0.074905, -0.005831, 0.044816, -0.559325, -0.019092, 2.621547
1515638024.55626, 0.091272, -0.002801, 0.064218, -0.572654, -0.035187, 2.616112
1515638024.56627, 0.101001, -0.000234, 0.077412, -0.587884, -0.05148, 2.611242
1515638024.57628, 0.110857, 0.004129, 0.087696, -0.604376, -0.068221, 2.606775
1515638024.58629, 0.114772, 0.012324, 0.095668, -0.621292, -0.085651, 2.60238
1515638024.5963, 0.118101, 0.02171, 0.094932, -0.638039, -0.103965, 2.597768
1515638024.60628, 0.118522, 0.020341, 0.079823, -0.65407, -0.123158, 2.592757
1515638024.61629, 0.121965, 0.006076, 0.054785, -0.669239, -0.143464, 2.587241
1515638024.6263, 0.1195, -0.00476, 0.019751, -0.683622, -0.164868, 2.581196
1515638024.63631, 0.103916, -0.006113, -0.011425, -0.697709, -0.18715, 2.57484
1515638024.64632, 0.077854, -0.002839, -0.037366, -0.712058, -0.209975, 2.568502
1515638024.65633, 0.060407, -0.010223, -0.076517, -0.727237, -0.233264, 2.562602
1515638024.66634, 0.039299, -0.012139, -0.131798, -0.74391, -0.256899, 2.557403
1515638024.67635, 0.023086, -0.022647, -0.177446, -0.76221, -0.280523, 2.553465
1515638024.68636, -0.011929, -0.035559, -0.231372, -0.781932, -0.303726, 2.551145
1515638024.69637, -0.055605, -0.069089, -0.280887, -0.80219, -0.326411, 2.550344
1515638024.70638, -0.094101, -0.112499, -0.316156, -0.821762, -0.348856, 2.550468
1515638024.71639, -0.125262, -0.150869, -0.344756, -0.839935, -0.371351, 2.550811
1515638024.7264, -0.150865, -0.185488, -0.371103, -0.856652, -0.394113, 2.550802
1515638024.73641, -0.186331, -0.217221, -0.4066, -0.872158, -0.417058, 2.550246
1515638024.74642, -0.225236, -0.248583, -0.45202, -0.886584, -0.439709, 2.549188
1515638024.75643, -0.264803, -0.283918, -0.493614, -0.899896, -0.461623, 2.547964
1515638024.76643, -0.304037, -0.321611, -0.530226, -0.912145, -0.482443, 2.547
1515638024.77644, -0.317737, -0.363221, -0.546239, -0.923371, -0.502025, 2.546475
1515638024.78645, -0.319588, -0.397301, -0.56971, -0.933916, -0.520229, 2.546176
1515638024.79646, -0.318626, -0.438107, -0.587218, -0.94387, -0.536719, 2.545728
1515638024.80647, -0.312708, -0.470435, -0.600542, -0.952991, -0.551318, 2.545128
1515638024.81648, -0.304609, -0.491901, -0.618808, -0.961193, -0.564046, 2.544664
1515638024.82649, -0.292809, -0.516317, -0.631336, -0.968389, -0.574956, 2.545002
1515638024.8365, -0.287389, -0.495322, -0.644106, -0.975026, -0.583966, 2.546469
1515638024.84651, -0.279942, -0.457755, -0.637544, -0.981645, -0.590987, 2.54912
1515638024.85652, -0.346343, -0.376685, -0.718762, -0.989194, -0.596068, 2.553014
1515638024.86653, -0.394917, -0.354674, -0.768523, -0.998688, -0.598752, 2.558318
1515638024.87654, -0.421626, -0.351198, -0.760851, -1.009685, -0.598239, 2.565365
1515638024.88655, -0.435992, -0.346342, -0.732077, -1.020325, -0.594749, 2.574364
1515638024.89656, -0.421994, -0.337982, -0.67123, -1.029036, -0.588978, 2.585038
1515638024.90657, -0.388008, -0.321749, -0.604396, -1.034485, -0.581366, 2.596717
1515638024.91658, -0.350708, -0.289868, -0.536084, -1.036322, -0.572222, 2.608391
1515638024.92659, -0.315912, -0.249389, -0.465756, -1.035012, -0.561876, 2.619179
1515638024.9366, -0.288014, -0.213933, -0.406036, -1.031145, -0.550653, 2.628761
1515638024.94658, -0.257569, -0.17702, -0.359192, -1.025517, -0.538858, 2.637561
1515638024.95659, -0.239602, -0.148779, -0.316108, -1.018976, -0.526674, 2.646451
1515638024.9666, -0.237263, -0.137955, -0.308108, -1.012559, -0.514199, 2.65615
1515638024.97661, -0.220224, -0.129497, -0.2784, -1.007154, -0.501288, 2.667011
1515638024.98662, -0.212463, -0.133507, -0.280683, -1.003514, -0.487418, 2.678996
1515638024.99663, -0.207612, -0.131036, -0.268714, -1.001801, -0.471905, 2.691694
1515638025.00664, -0.202215, -0.12447, -0.24735, -1.001599, -0.454468, 2.704327
1515638025.01665, -0.185275, -0.104364, -0.224028, -1.002071, -0.435186, 2.716096
1515638025.02666, -0.157398, -0.071503, -0.204723, -1.002447, -0.414409, 2.726517
1515638025.03667, -0.132482, -0.024966, -0.184419, -1.002397, -0.392528, 2.735321
1515638025.04668, -0.110305, 0.038439, -0.168992, -1.001937, -0.36987, 2.742504
1515638025.05669, -0.092191, 0.10686, -0.153264, -1.001245, -0.346781, 2.748404
1515638025.0667, -0.064295, 0.175148, -0.130101, -1.000354, -0.323701, 2.753654
1515638025.07671, -0.030462, 0.228791, -0.100568, -0.999025, -0.301035, 2.758886
1515638025.08672, 0.007649, 0.26185, -0.065858, -0.99703, -0.279034, 2.764577
1515638025.09673, 0.046522, 0.273367, -0.030428, -0.994248, -0.257831, 2.770885
1515638025.10674, 0.083748, 0.273244, 0.00737, -0.990823, -0.237575, 2.777736
1515638025.11675, 0.119931, 0.270265, 0.033765, -0.987138, -0.218374, 2.785007
1515638025.12676, 0.151227, 0.270693, 0.051542, -0.983709, -0.200185, 2.792499
1515638025.13677, 0.176623, 0.266984, 0.071513, -0.981018, -0.182887, 2.800085
1515638025.14677, 0.203027, 0.264778, 0.087228, -0.97932, -0.166347, 2.807752
1515638025.15679, 0.225563, 0.271696, 0.097775, -0.978709, -0.150502, 2.815652
1515638025.16679, 0.252556, 0.282526, 0.114094, -0.979331, -0.135337, 2.823977
1515638025.1768, 0.276588, 0.291499, 0.13031, -0.981284, -0.12092, 2.832947
1515638025.18681, 0.295766, 0.297076, 0.140048, -0.984722, -0.107274, 2.842746
1515638025.19682, 0.299612, 0.309912, 0.13658, -0.989761, -0.094373, 2.85348
1515638025.20683, 0.330426, 0.312712, 0.161698, -0.996457, -0.082232, 2.86506
1515638025.21684, 0.344447, 0.316673, 0.175686, -1.004598, -0.070945, 2.87729
1515638025.22685, 0.353947, 0.319325, 0.180339, -1.013845, -0.060626, 2.889857
1515638025.23686, 0.360718, 0.320901, 0.181228, -1.02378, -0.051375, 2.902601
1515638025.24687, 0.368022, 0.322462, 0.189456, -1.034028, -0.043229, 2.91538
1515638025.25688, 0.379321, 0.324657, 0.200946, -1.044182, -0.036358, 2.928076
1515638025.26689, 0.387877, 0.328188, 0.210488, -1.053932, -0.030902, 2.940552
1515638025.27687, 0.399312, 0.331883, 0.217044, -1.063144, -0.026885, 2.952624
1515638025.28688, 0.40368, 0.335317, 0.218376, -1.071958, -0.024304, 2.964146
1515638025.29689, 0.399548, 0.336314, 0.221977, -1.080469, -0.023216, 2.97489
1515638025.3069, 0.393025, 0.338057, 0.22209, -1.088606, -0.023655, 2.984677
1515638025.31691, 0.379428, 0.342871, 0.217114, -1.096286, -0.025571, 2.993285
1515638025.32692, 0.407952, 0.348811, 0.194048, -1.103444, -0.028955, 3.000554
1515638025.33693, 0.882635, 0.252148, -0.134389, -1.110433, -0.033335, 3.006058
1515638025.34694, 0.880278, 0.338713, -0.602563, -1.118191, -0.037409, 3.009557
1515638025.35695, 0.62461, 0.489767, -0.455594, -1.130593, -0.043297, 3.009656
1515638025.36696, 0.384631, 0.558144, -0.074295, -1.144005, -0.052751, 3.007926
1515638025.37697, 0.204558, 0.493074, 0.130718, -1.150301, -0.064619, 3.007748
1515638025.38698, 0.118017, 0.500068, 0.159622, -1.146713, -0.07852, 3.010705
1515638025.39699, 0.129566, 0.511824, 0.090503, -1.136437, -0.093001, 3.016996
1515638025.407, 0.161717, 0.477161, 0.023634, -1.124531, -0.106874, 3.026187
1515638025.41701, 0.171003, 0.385173, 0.035698, -1.11453, -0.120551, 3.037267
1515638025.42702, 0.165168, 0.320076, 0.066949, -1.107558, -0.135646, 3.048708
1515638025.43703, 0.067788, 0.307858, 0.10451, -1.103587, -0.152803, 3.058365
1515638025.44704, 0.069618, 0.228435, 0.143724, -1.10247, -0.170785, 3.065164
1515638025.45705, 0.101311, 0.173138, 0.181728, -1.105357, -0.187362, 3.068807
1515638025.46706, 0.053175, 0.192336, 0.20858, -1.113062, -0.201667, 3.068746
1515638025.47707, -0.019398, 0.234301, 0.25112, -1.124583, -0.214936, 3.064917
1515638025.48708, -0.080771, 0.281481, 0.248882, -1.1369, -0.229297, 3.057958
1515638025.49709, -0.133194, 0.288659, 0.122174, -1.147613, -0.245429, 3.048573
1515638025.5071, -0.199169, 0.155087, -0.043491, -1.158077, -0.261361, 3.037974
1515638025.51711, -0.234929, 0.003472, -0.19696, -1.171627, -0.274514, 3.028201
1515638025.52712, -0.290667, -0.003968, -0.24653, -1.190669, -0.283825, 3.019879
1515638025.5371, -0.363723, 0.105829, -0.172411, -1.213353, -0.290052, 3.012244
1515638025.54711, -0.444355, 0.291197, -0.108657, -1.235461, -0.295353, 3.004368
1515638025.55712, -0.456393, 0.442588, -0.082353, -1.254635, -0.301395, 2.995628
1515638025.56713, -0.333239, 0.462587, -0.089793, -1.269659, -0.30924, 2.986477
1515638025.57714, -0.169351, 0.408906, -0.094467, -1.280592, -0.319301, 2.977165
1515638025.58715, -0.059991, 0.377625, -0.086076, -1.289107, -0.331298, 2.966648
1515638025.59716, -0.065036, 0.388598, -0.009276, -1.296564, -0.345127, 2.953736
1515638025.60717, -0.087727, 0.403487, 0.058186, -1.302655, -0.361263, 2.937972
1515638025.61715, -0.091764, 0.385881, 0.054699, -1.307272, -0.380235, 2.919496
1515638025.62716, -0.093556, 0.340283, 0.000258, -1.311385, -0.401944, 2.898549
1515638025.63717, -0.089939, 0.269939, -0.039824, -1.315265, -0.425158, 2.876185
1515638025.64718, -0.079283, 0.239112, -0.079795, -1.318095, -0.448808, 2.85419
1515638025.65719, -0.045469, 0.210737, -0.109215, -1.319835, -0.47212, 2.834018
1515638025.6672, -0.017537, 0.168424, -0.114692, -1.321097, -0.494905, 2.816889
1515638025.67721, 0.043993, 0.14624, -0.149861, -1.322806, -0.516635, 2.803406
1515638025.68722, 0.074843, 0.168675, -0.15516, -1.326293, -0.536895, 2.792805
1515638025.69723, 0.079428, 0.220653, -0.13375, -1.331071, -0.556626, 2.783411
1515638025.70724, 0.074338, 0.256586, -0.15278, -1.336223, -0.577103, 2.773148
1515638025.71724, 0.060229, 0.27117, -0.172524, -1.341244, -0.598692, 2.760891
1515638025.72725, 0.038153, 0.26922, -0.201486, -1.34549, -0.621119, 2.74655
1515638025.73726, 0.009716, 0.262646, -0.238737, -1.348922, -0.644219, 2.730503
1515638025.74727, 0.00425, 0.231203, -0.269433, -1.351752, -0.667587, 2.713698
1515638025.75728, 0.003973, 0.189969, -0.28817, -1.353964, -0.690715, 2.697323
1515638025.76729, -0.010791, 0.133579, -0.294266, -1.355605, -0.713672, 2.682088
1515638025.7773, -0.015072, 0.069244, -0.286311, -1.3566, -0.736676, 2.66817
1515638025.78731, -0.031173, 0.00656, -0.269953, -1.356887, -0.759746, 2.655404
1515638025.79732, -0.061482, -0.050408, -0.254334, -1.356762, -0.782954, 2.64356
1515638025.80733, -0.103546, -0.104724, -0.23491, -1.356565, -0.806385, 2.632667
1515638025.81734, -0.154407, -0.151837, -0.217631, -1.356301, -0.830083, 2.623111
1515638025.82735, -0.219323, -0.190078, -0.205667, -1.355741, -0.854056, 2.61543
1515638025.83736, -0.312021, -0.229534, -0.174111, -1.354799, -0.87822, 2.609967
1515638025.84737, -0.429415, -0.283507, -0.11822, -1.352919, -0.902282, 2.607118
1515638025.85738, -0.536753, -0.360731, -0.070449, -1.349276, -0.925671, 2.607137
1515638025.86739, -0.618925, -0.456749, -0.03962, -1.343724, -0.947708, 2.609687
1515638025.8774, -0.66881, -0.558107, -0.024524, -1.336802, -0.967936, 2.614099
1515638025.88741, -0.703703, -0.639806, -0.004715, -1.329715, -0.986189, 2.619103
1515638025.89742, -0.725337, -0.693451, 0.009165, -1.323678, -1.0025, 2.623092
1515638025.90743, -0.739352, -0.731891, 0.012076, -1.319598, -1.016902, 2.624699
1515638025.91744, -0.755835, -0.759333, 0.005346, -1.317589, -1.029399, 2.623554
1515638025.92745, -0.775485, -0.767722, -0.014802, -1.317112, -1.039937, 2.620071
1515638025.93746, -0.781835, -0.758549, -0.032082, -1.317656, -1.048464, 2.614731
1515638025.94744, -0.778694, -0.746332, -0.040695, -1.318512, -1.054964, 2.608308
1515638025.95745, -0.764117, -0.731502, -0.042975, -1.319006, -1.059534, 2.60144
1515638025.96746, -0.747108, -0.715909, -0.038166, -1.318942, -1.062255, 2.594455
1515638025.97747, -0.741722, -0.705716, -0.023188, -1.318373, -1.063166, 2.587435
1515638025.98748, -0.720806, -0.715501, 0.002817, -1.317071, -1.062045, 2.580554
1515638025.99749, -0.683305, -0.724098, 0.022648, -1.315186, -1.058903, 2.573932
1515638026.0075, -0.642937, -0.725426, 0.036505, -1.313399, -1.053972, 2.567407
1515638026.01751, -0.598511, -0.724979, 0.043009, -1.312606, -1.047605, 2.560538
1515638026.02752, -0.565998, -0.71639, 0.046806, -1.313415, -1.040084, 2.552968
1515638026.03753, -0.543841, -0.71166, 0.050919, -1.315785, -1.031465, 2.544952
1515638026.04754, -0.521849, -0.70001, 0.049314, -1.319213, -1.021755, 2.537133
1515638026.05755, -0.517248, -0.6695, 0.036739, -1.323516, -1.011015, 2.529764
1515638026.06756, -0.521247, -0.642637, 0.017898, -1.328635, -0.999328, 2.522942
1515638026.07757, -0.527508, -0.614124, 0.010404, -1.334205, -0.986682, 2.516812
1515638026.08758, -0.533893, -0.580042, 0.004305, -1.33974, -0.972974, 2.511488
1515638026.09759, -0.53494, -0.544971, -0.006468, -1.34513, -0.958079, 2.506672
1515638026.1076, -0.530697, -0.50576, -0.017241, -1.350776, -0.941874, 2.501586
1515638026.11761, -0.522377, -0.458362, -0.030243, -1.357104, -0.924311, 2.495389
1515638026.12761, -0.534304, -0.377144, -0.050049, -1.364268, -0.905478, 2.487577
1515638026.13762, -0.572715, -0.257588, -0.092039, -1.372621, -0.885603, 2.478086
1515638026.14763, -0.609815, -0.141333, -0.137161, -1.382146, -0.865195, 2.467558
1515638026.15764, -0.645769, -0.070786, -0.164997, -1.391569, -0.844839, 2.457567
1515638026.16765, -0.663293, 0.000064, -0.20239, -1.399915, -0.824628, 2.449124
1515638026.17766, -0.655105, 0.069694, -0.244587, -1.407831, -0.804344, 2.441698
1515638026.18767, -0.635112, 0.122877, -0.280788, -1.416135, -0.783893, 2.434247
1515638026.19768, -0.590301, 0.15602, -0.315387, -1.424496, -0.76335, 2.42639
1515638026.20769, -0.526602, 0.174733, -0.362769, -1.431822, -0.742866, 2.41852
1515638026.2177, -0.472324, 0.196764, -0.416459, -1.437553, -0.722528, 2.411438
1515638026.22771, -0.427682, 0.233057, -0.477308, -1.441782, -0.702154, 2.406106
1515638026.23772, -0.390857, 0.269627, -0.521657, -1.444844, -0.681298, 2.403735
1515638026.24773, -0.36373, 0.298797, -0.538376, -1.446905, -0.659553, 2.405363
1515638026.25774, -0.329783, 0.327875, -0.537354, -1.447912, -0.636724, 2.411516
1515638026.26775, -0.277713, 0.353081, -0.518, -1.447962, -0.612666, 2.421617
1515638026.27776, -0.207463, 0.368989, -0.504984, -1.447548, -0.587381, 2.434212
1515638026.28774, -0.135051, 0.373338, -0.499533, -1.447391, -0.561208, 2.447893
1515638026.29775, -0.070538, 0.385583, -0.497531, -1.448064, -0.534334, 2.462007
1515638026.30776, -0.027013, 0.398809, -0.498829, -1.449656, -0.507161, 2.476446
1515638026.31777, -0.00033, 0.398993, -0.498194, -1.451693, -0.479921, 2.491645
1515638026.32778, 0.014602, 0.41926, -0.489434, -1.453433, -0.452518, 2.508036
1515638026.33779, 0.06072, 0.44552, -0.459026, -1.454219, -0.42444, 2.525765
1515638026.3478, 0.120374, 0.450678, -0.427182, -1.453584, -0.395572, 2.54477
1515638026.35781, 0.172882, 0.458445, -0.399489, -1.45149, -0.366215, 2.564961
1515638026.36782, 0.215629, 0.47637, -0.368846, -1.44821, -0.336849, 2.586138
1515638026.37783, 0.244596, 0.495397, -0.329089, -1.443866, -0.307971, 2.608081
1515638026.38784, 0.264655, 0.518492, -0.281092, -1.438449, -0.280013, 2.630497
1515638026.39785, 0.278136, 0.534698, -0.244364, -1.432074, -0.253122, 2.653083
1515638026.40786, 0.29111, 0.534104, -0.20675, -1.424995, -0.227324, 2.67558
1515638026.41787, 0.30125, 0.530294, -0.17311, -1.417476, -0.202564, 2.697889
1515638026.42788, 0.306481, 0.527263, -0.135644, -1.409907, -0.178672, 2.720036
1515638026.43789, 0.320511, 0.528792, -0.101528, -1.402732, -0.155473, 2.742074
1515638026.4479, 0.343147, 0.528116, -0.063809, -1.396271, -0.132966, 2.764114
1515638026.45791, 0.37171, 0.530744, -0.032607, -1.390878, -0.11124, 2.78609
1515638026.46792, 0.39871, 0.526697, -0.002847, -1.38691, -0.090385, 2.807849
1515638026.47793, 0.422872, 0.518252, 0.022126, -1.384489, -0.070567, 2.82918
1515638026.48794, 0.44504, 0.511975, 0.040183, -1.38361, -0.051937, 2.849916
1515638026.49795, 0.460833, 0.515708, 0.039475, -1.384256, -0.034637, 2.869862
1515638026.50796, 0.467734, 0.519925, 0.043758, -1.386234, -0.018727, 2.888732
1515638026.51797, 0.476997, 0.525491, 0.045446, -1.389112, -0.004279, 2.906288
1515638026.52797, 0.480426, 0.533162, 0.047912, -1.392308, 0.008611, 2.922315
1515638026.53794, 0.493036, 0.543702, 0.047477, -1.395232, 0.019869, 2.936688
1515638026.54795, 0.506052, 0.547164, 0.042887, -1.39745, 0.029438, 2.949415
1515638026.55796, 0.508994, 0.553302, 0.041379, -1.398829, 0.037197, 2.960648
1515638026.56797, 0.508874, 0.55909, 0.040711, -1.399467, 0.04299, 2.970717
1515638026.57798, 0.472861, 0.583152, 0.042894, -1.399622, 0.046761, 2.97998
1515638026.58799, 0.435417, 0.602697, 0.049136, -1.399531, 0.048364, 2.98884
1515638026.598, 0.393458, 0.607464, 0.059212, -1.39936, 0.047683, 2.997726
1515638026.60801, 0.348678, 0.610133, 0.066369, -1.399414, 0.044764, 3.006921
1515638026.61799, 0.304239, 0.61518, 0.069175, -1.400104, 0.039659, 3.016508
1515638026.628, 0.266152, 0.605307, 0.066837, -1.401655, 0.032452, 3.026661
1515638026.63801, 0.232526, 0.592154, 0.069709, -1.404032, 0.023446, 3.037306
1515638026.64802, 0.195719, 0.578667, 0.064457, -1.407331, 0.012993, 3.048171
1515638026.65803, 0.153304, 0.584903, 0.056151, -1.411788, 0.001438, 3.058777
1515638026.66804, 0.095971, 0.608522, 0.051269, -1.417524, -0.011016, 3.068677
1515638026.67805, 0.026712, 0.646693, 0.049695, -1.424111, -0.024437, 3.077631
1515638026.68806, -0.019652, 0.673021, 0.061957, -1.430591, -0.039087, 3.085625
1515638026.69807, -0.039444, 0.691631, 0.082251, -1.436101, -0.054994, 3.092454
1515638026.70808, -0.032164, 0.710484, 0.083232, -1.440365, -0.071927, 3.097276
1515638026.71809, 0.017439, 0.699306, 0.078258, -1.443232, -0.089877, 3.098757
1515638026.7281, 0.084315, 0.634624, 0.079105, -1.444029, -0.1092, 3.096219
1515638026.73811, 0.127295, 0.583773, 0.056588, -1.442542, -0.129956, 3.089716
1515638026.74812, 0.14841, 0.599313, 0.005635, -1.439839, -0.151927, 3.079394
1515638026.75813, 0.136132, 0.619169, -0.030317, -1.437018, -0.175323, 3.065919
1515638026.76814, 0.076769, 0.60802, -0.024496, -1.433841, -0.200838, 3.05103
1515638026.77815, 0.028127, 0.585722, -0.019635, -1.429695, -0.228878, 3.036505
1515638026.78816, -0.015627, 0.548854, -0.019123, -1.424797, -0.259184, 3.023417
1515638026.79817, -0.068384, 0.491013, -0.015058, -1.419954, -0.291334, 3.012537
1515638026.80817, -0.125112, 0.423209, -0.004153, -1.415937, -0.325103, 3.004638
1515638026.81818, -0.176989, 0.340974, 0.011901, -1.413236, -0.360004, 3.000607
1515638026.82819, -0.219936, 0.252248, 0.02485, -1.412183, -0.395428, 3.00105
1515638026.8382, -0.268211, 0.157214, 0.034091, -1.413156, -0.430836, 3.005969
1515638026.84821, -0.313392, 0.065009, 0.031934, -1.416604, -0.465577, 3.014581
1515638026.85822, -0.356209, -0.007467, 0.029932, -1.422965, -0.498848, 3.025385
1515638026.86823, -0.383259, -0.071771, 0.028864, -1.432254, -0.530035, 3.036708
1515638026.87824, -0.404098, -0.11236, 0.018545, -1.444227, -0.55879, 3.047046
1515638026.88825, -0.42283, -0.119198, 0.016331, -1.458104, -0.584996, 3.055133
1515638026.89826, -0.42919, -0.117205, 0.018698, -1.472382, -0.608785, 3.06026
1515638026.90827, -0.429219, -0.125602, 0.005542, -1.485585, -0.630515, 3.062075
1515638026.91828, -0.420498, -0.149085, -0.011836, -1.496747, -0.650497, 3.060651
1515638026.92829, -0.400622, -0.179585, -0.036418, -1.505561, -0.668995, 3.056261
1515638026.9383, -0.375063, -0.215639, -0.063497, -1.512293, -0.686168, 3.049367
1515638026.94831, -0.34817, -0.247326, -0.082911, -1.517529, -0.701943, 3.040484
1515638026.95829, -0.312102, -0.270124, -0.097194, -1.522246, -0.716098, 3.030278
1515638026.9683, -0.283088, -0.285768, -0.10947, -1.527469, -0.728672, 3.019214
1515638026.97831, -0.263487, -0.28337, -0.121728, -1.533674, -0.739831, 3.007977
1515638026.98832, -0.25313, -0.264844, -0.133369, -1.540857, -0.749894, 2.997291
1515638026.99833, -0.248431, -0.253255, -0.146847, -1.548596, -0.759225, 2.988091
1515638027.00834, -0.232047, -0.260852, -0.162743, -1.556253, -0.768159, 2.981354
1515638027.01835, -0.20403, -0.277561, -0.186484, -1.563444, -0.77696, 2.977883
1515638027.02836, -0.184167, -0.294038, -0.208838, -1.570179, -0.785854, 2.977847
1515638027.03837, -0.174661, -0.308578, -0.213203, -1.576343, -0.795157, 2.980975
1515638027.04838, -0.1811, -0.319482, -0.196894, -1.581577, -0.805027, 2.986624
1515638027.05839, -0.203752, -0.336881, -0.178303, -1.585604, -0.815458, 2.99412
1515638027.0684, -0.225229, -0.363197, -0.162328, -1.588506, -0.826331, 3.002876
1515638027.07841, -0.260019, -0.392862, -0.157054, -1.590553, -0.837322, 3.012707
1515638027.08842, -0.299437, -0.419548, -0.142037, -1.591938, -0.847935, 3.023529
1515638027.09843, -0.327887, -0.449551, -0.126472, -1.592711, -0.85766, 3.035177
1515638027.10844, -0.35917, -0.469443, -0.10974, -1.593104, -0.866161, 3.046942
1515638027.11845, -0.375062, -0.494379, -0.103492, -1.593471, -0.873215, 3.057838
1515638027.12846, -0.372508, -0.517471, -0.098954, -1.594279, -0.878656, 3.066749
1515638027.13847, -0.362087, -0.531188, -0.097992, -1.595945, -0.882345, 3.07261
1515638027.14848, -0.346741, -0.540637, -0.106519, -1.598671, -0.884227, 3.074631
1515638027.15849, -0.331412, -0.548257, -0.120983, -1.602357, -0.884283, 3.072416
1515638027.1685, -0.315444, -0.548614, -0.145437, -1.606635, -0.882634, 3.066307
1515638027.17851, -0.293486, -0.543477, -0.183876, -1.610978, -0.87943, 3.057272
1515638027.18852, -0.277822, -0.526344, -0.228762, -1.615011, -0.874827, 3.046473
1515638027.19853, -0.265218, -0.496529, -0.268803, -1.618522, -0.869065, 3.034808
1515638027.20854, -0.257891, -0.463833, -0.300237, -1.621034, -0.862337, 3.023182
1515638027.21854, -0.257939, -0.433885, -0.334258, -1.621942, -0.854873, 3.012556
1515638027.22855, -0.256881, -0.406781, -0.36886, -1.620986, -0.846881, 3.003733
1515638027.23856, -0.262414, -0.385918, -0.39446, -1.618132, -0.838484, 2.997261
1515638027.24857, -0.282462, -0.345154, -0.423973, -1.613757, -0.829524, 2.993261
1515638027.25858, -0.327677, -0.26812, -0.461593, -1.608902, -0.819623, 2.991466
1515638027.26859, -0.393577, -0.157202, -0.491709, -1.604237, -0.808839, 2.991747
1515638027.2786, -0.449506, -0.077342, -0.48803, -1.598502, -0.797944, 2.995114
1515638027.28861, -0.473265, -0.07204, -0.451372, -1.589445, -0.787738, 3.00312
1515638027.29859, -0.470781, -0.103111, -0.416287, -1.576339, -0.777907, 3.016116
1515638027.3086, -0.45074, -0.126398, -0.408073, -1.561205, -0.767065, 3.032501
1515638027.31861, -0.4543, -0.109259, -0.409184, -1.546929, -0.754336, 3.049954
1515638027.32862, -0.508627, -0.050202, -0.389483, -1.5345, -0.739606, 3.067536
1515638027.33863, -0.573981, 0.031794, -0.351297, -1.52281, -0.723372, 3.085719
1515638027.34864, -0.611989, 0.091511, -0.317694, -1.510674, -0.705965, 3.105409
1515638027.35865, -0.626999, 0.129605, -0.294473, -1.498112, -0.687394, 3.126788
1515638027.36866, -0.603629, 0.141406, -0.276335, -1.485957, -0.667605, -3.133976
1515638027.37867, -0.564138, 0.153444, -0.248839, -1.475244, -0.646428, -3.111974
1515638027.38868, -0.506264, 0.153999, -0.222718, -1.466579, -0.623957, -3.091848
1515638027.39869, -0.442759, 0.132062, -0.203746, -1.459804, -0.600458, -3.074643
1515638027.4087, -0.429851, 0.152339, -0.197574, -1.454194, -0.576084, -3.060799
1515638027.41871, -0.377567, 0.150224, -0.199308, -1.448773, -0.550844, -3.050247
1515638027.42872, -0.253734, 0.104664, -0.222572, -1.442657, -0.524616, -3.042299
1515638027.43873, -0.177147, 0.107244, -0.228348, -1.435359, -0.497324, -3.035922
1515638027.44874, -0.103652, 0.126057, -0.222582, -1.426824, -0.468911, -3.029989
1515638027.45875, -0.033833, 0.152047, -0.20953, -1.417373, -0.439327, -3.023602
1515638027.46876, 0.02897, 0.187854, -0.18971, -1.407355, -0.408745, -3.016062
1515638027.47877, 0.08688, 0.230694, -0.147673, -1.397199, -0.377416, -3.006798
1515638027.48878, 0.137802, 0.27136, -0.092541, -1.3873, -0.345585, -2.995585
1515638027.49879, 0.185945, 0.306578, -0.032512, -1.377945, -0.313492, -2.982392
1515638027.5088, 0.232883, 0.345604, 0.022125, -1.369604, -0.281513, -2.967602
1515638027.51881, 0.239632, 0.375962, 0.030275, -1.362754, -0.250048, -2.951665
1515638027.52882, 0.290053, 0.405305, 0.105744, -1.357707, -0.219485, -2.935122
1515638027.53879, 0.297355, 0.434991, 0.135841, -1.354609, -0.190161, -2.918431
1515638027.5488, 0.30484, 0.459546, 0.158547, -1.353414, -0.162352, -2.902017
1515638027.55881, 0.313757, 0.475196, 0.17583, -1.353858, -0.136279, -2.886194
1515638027.56882, 0.322095, 0.484807, 0.184047, -1.355556, -0.111954, -2.871301
1515638027.57883, 0.336823, 0.491519, 0.183528, -1.358016, -0.089227, -2.857758
1515638027.58884, 0.354054, 0.500034, 0.180844, -1.360708, -0.067874, -2.84599
1515638027.59885, 0.377669, 0.514608, 0.178039, -1.363062, -0.047711, -2.836325
1515638027.60886, 0.399192, 0.537767, 0.169602, -1.364618, -0.028674, -2.829045
1515638027.61887, 0.409883, 0.571192, 0.158787, -1.365296, -0.0109, -2.824215
1515638027.62885, 0.40752, 0.597705, 0.148993, -1.365162, 0.005283, -2.821694
1515638027.63886, 0.405175, 0.619163, 0.141495, -1.364258, 0.019723, -2.820916
1515638027.64887, 0.400597, 0.635264, 0.134877, -1.362688, 0.032243, -2.821268
1515638027.65888, 0.398288, 0.650635, 0.123728, -1.36071, 0.042799, -2.822292
1515638027.66889, 0.394607, 0.668473, 0.114284, -1.358575, 0.051399, -2.823806
1515638027.6789, 0.383073, 0.684605, 0.106403, -1.356566, 0.058005, -2.825647
1515638027.68891, 0.37328, 0.702637, 0.098232, -1.354998, 0.062388, -2.82764
1515638027.69892, 0.360811, 0.716021, 0.093338, -1.354059, 0.064363, -2.829536
1515638027.70893, 0.339375, 0.720454, 0.091585, -1.353766, 0.063804, -2.831027
1515638027.71894, 0.325916, 0.702239, 0.084083, -1.354134, 0.060598, -2.831752
1515638027.72894, 0.312552, 0.67356, 0.067252, -1.355287, 0.054905, -2.831576
1515638027.73895, 0.289392, 0.65434, 0.054634, -1.357577, 0.047149, -2.830561
1515638027.74896, 0.252939, 0.657767, 0.044972, -1.361243, 0.037735, -2.829025
1515638027.75897, 0.19284, 0.707938, 0.034597, -1.366384, 0.027063, -2.827479
1515638027.76898, 0.14523, 0.773796, 0.039292, -1.37278, 0.015206, -2.82676
1515638027.77899, 0.117189, 0.800818, 0.058543, -1.379403, 0.001593, -2.827449
1515638027.789, 0.108783, 0.772446, 0.075917, -1.384578, -0.014389, -2.82962
1515638027.79901, 0.119926, 0.717797, 0.057954, -1.386983, -0.03314, -2.833181
1515638027.80902, 0.140407, 0.649213, 0.017361, -1.386767, -0.054458, -2.83829
1515638027.81903, 0.148791, 0.595015, -0.015383, -1.385263, -0.077823, -2.844888
1515638027.82904, 0.146479, 0.549641, -0.023407, -1.383601, -0.102853, -2.85247
1515638027.83905, 0.125362, 0.504989, -0.019602, -1.3821, -0.129359, -2.860259
1515638027.84906, 0.099443, 0.468544, -0.024481, -1.380839, -0.157241, -2.86759
1515638027.85907, 0.060116, 0.437742, -0.026282, -1.380151, -0.18632, -2.874069
1515638027.86908, 0.007982, 0.413797, -0.022911, -1.380462, -0.216351, -2.879293
1515638027.87909, -0.054729, 0.390285, -0.009772, -1.382007, -0.247094, -2.88285
1515638027.8891, -0.118083, 0.351106, 0.020684, -1.384573, -0.278439, -2.884274
1515638027.89911, -0.170098, 0.291355, 0.048638, -1.387536, -0.310327, -2.883227
1515638027.90912, -0.209219, 0.216207, 0.065357, -1.390483, -0.342546, -2.879479
1515638027.91913, -0.241303, 0.128635, 0.068907, -1.393433, -0.374619, -2.873284
1515638027.92914, -0.261287, 0.02643, 0.079208, -1.396575, -0.405905, -2.865215
1515638027.93915, -0.26346, -0.087054, 0.09245, -1.400289, -0.435616, -2.856371
1515638027.94916, -0.26211, -0.182756, 0.107911, -1.405172, -0.463043, -2.847962
1515638027.95917, -0.265189, -0.245597, 0.128308, -1.411642, -0.487831, -2.840908
1515638027.96915, -0.289774, -0.267315, 0.146249, -1.419309, -0.509958, -2.835509
1515638027.97916, -0.314383, -0.257382, 0.150679, -1.427447, -0.529579, -2.831948
1515638027.98917, -0.323482, -0.247496, 0.144798, -1.435348, -0.546746, -2.830438
1515638027.99918, -0.296831, -0.221084, 0.124539, -1.442401, -0.561985, -2.831139
1515638028.00919, -0.311722, -0.178709, 0.087889, -1.448115, -0.575985, -2.83392
1515638028.0192, -0.323505, -0.201474, 0.061042, -1.452713, -0.588131, -2.839032
1515638028.02921, -0.287573, -0.21954, 0.051091, -1.45672, -0.598473, -2.846358
1515638028.03922, -0.252523, -0.193947, 0.026198, -1.460568, -0.60736, -2.855745
1515638028.04923, -0.227652, -0.160289, 0.000116, -1.464814, -0.614946, -2.866916
1515638028.05924, -0.205489, -0.142963, -0.018398, -1.469558, -0.621397, -2.879659
1515638028.06925, -0.181768, -0.141399, -0.044002, -1.474502, -0.627048, -2.89355
1515638028.07926, -0.151128, -0.140729, -0.068895, -1.479531, -0.632355, -2.908273
1515638028.08927, -0.118274, -0.137802, -0.086296, -1.484614, -0.637666, -2.923438
1515638028.09928, -0.094664, -0.145759, -0.104349, -1.489677, -0.643174, -2.938671
1515638028.10929, -0.087476, -0.156216, -0.120343, -1.494638, -0.649104, -2.953414
1515638028.11929, -0.087408, -0.170535, -0.132389, -1.499402, -0.655603, -2.967093
1515638028.1293, -0.080578, -0.188519, -0.145119, -1.503844, -0.662678, -2.978947
1515638028.13931, -0.080062, -0.207248, -0.15467, -1.508125, -0.670259, -2.988632
1515638028.14932, -0.087981, -0.232292, -0.15553, -1.512436, -0.67837, -2.995981
1515638028.15933, -0.095311, -0.251075, -0.145802, -1.516875, -0.687043, -3.001241
1515638028.16934, -0.104568, -0.273394, -0.137326, -1.521373, -0.696229, -3.004807
1515638028.17935, -0.117253, -0.293973, -0.122755, -1.525771, -0.705767, -3.007251
1515638028.18936, -0.13914, -0.318948, -0.121565, -1.530049, -0.715424, -3.009307
1515638028.19937, -0.162189, -0.330414, -0.128394, -1.53435, -0.724934, -3.011504
1515638028.20938, -0.196537, -0.33037, -0.133841, -1.538862, -0.734065, -3.014332
1515638028.21939, -0.232426, -0.326581, -0.13999, -1.543561, -0.742745, -3.017823
1515638028.2294, -0.254291, -0.322157, -0.146845, -1.54818, -0.751002, -3.021919
1515638028.23941, -0.27064, -0.32419, -0.155665, -1.552364, -0.759031, -3.02641
1515638028.24942, -0.283874, -0.345883, -0.170793, -1.555856, -0.767026, -3.031355
1515638028.25943, -0.29781, -0.370139, -0.188915, -1.558596, -0.774932, -3.036702
1515638028.26944, -0.313827, -0.387894, -0.205514, -1.560911, -0.782512, -3.042718
1515638028.27945, -0.334673, -0.395642, -0.227613, -1.563232, -0.789416, -3.049472
1515638028.28946, -0.384346, -0.386504, -0.252591, -1.565952, -0.795461, -3.057105
1515638028.29947, -0.468448, -0.311755, -0.292506, -1.569716, -0.800603, -3.065375
1515638028.30945, -0.541581, -0.221739, -0.304067, -1.574832, -0.804814, -3.074117
1515638028.31946, -0.595427, -0.19773, -0.294402, -1.580007, -0.808287, -3.082315
1515638028.32947, -0.631799, -0.190259, -0.333538, -1.582935, -0.811305, -3.08832
1515638028.33948, -0.650467, -0.186208, -0.375263, -1.583751, -0.813512, -3.091452
1515638028.34949, -0.653314, -0.191121, -0.369074, -1.584355, -0.814713, -3.092914
1515638028.3595, -0.665817, -0.205589, -0.356693, -1.584105, -0.814872, -3.092707
1515638028.36951, -0.668746, -0.240981, -0.345094, -1.581865, -0.813993, -3.090678
1515638028.37952, -0.66339, -0.276123, -0.335224, -1.576879, -0.812018, -3.086352
1515638028.38953, -0.639094, -0.30279, -0.325803, -1.569312, -0.808447, -3.079654
1515638028.39954, -0.621219, -0.312034, -0.308474, -1.559884, -0.802605, -3.070584
1515638028.40955, -0.598032, -0.302465, -0.289557, -1.549361, -0.794054, -3.059448
1515638028.41956, -0.562003, -0.288788, -0.260535, -1.538149, -0.782771, -3.0461
1515638028.42957, -0.513306, -0.267077, -0.220811, -1.526487, -0.769071, -3.03075
1515638028.43958, -0.465849, -0.240084, -0.195924, -1.515027, -0.753181, -3.014025
1515638028.44959, -0.420188, -0.207199, -0.182198, -1.504596, -0.735214, -2.996993
1515638028.4596, -0.381061, -0.171501, -0.16868, -1.495691, -0.715241, -2.980444
1515638028.46961, -0.343935, -0.135079, -0.156802, -1.488145, -0.693475, -2.965006
1515638028.47962, -0.30994, -0.098298, -0.151398, -1.481431, -0.670139, -2.951029
1515638028.48963, -0.267155, -0.067176, -0.150247, -1.474924, -0.645446, -2.938578
1515638028.49964, -0.228336, -0.029306, -0.156925, -1.468292, -0.619511, -2.927423
1515638028.50964, -0.192731, 0.011362, -0.154532, -1.46154, -0.592328, -2.917216
1515638028.51966, -0.159776, 0.057954, -0.145591, -1.454724, -0.563951, -2.907539
1515638028.52966, -0.123048, 0.104113, -0.126633, -1.447727, -0.53452, -2.89794
1515638028.53963, -0.087651, 0.149795, -0.105813, -1.440458, -0.504272, -2.888052
1515638028.54964, -0.043686, 0.192637, -0.079281, -1.433085, -0.473374, -2.877714
1515638028.55965, -0.0028, 0.234928, -0.051393, -1.425939, -0.442031, -2.866972
1515638028.56966, 0.031231, 0.276471, -0.025369, -1.419393, -0.410465, -2.856024
1515638028.57967, 0.058438, 0.318671, 0.001518, -1.413739, -0.378915, -2.845003
1515638028.58967, 0.082586, 0.359268, 0.021785, -1.409133, -0.347627, -2.834035
1515638028.59968, 0.104771, 0.395447, 0.041409, -1.405633, -0.316795, -2.823316
1515638028.60969, 0.12043, 0.42778, 0.061623, -1.403182, -0.28656, -2.813095
1515638028.6197, 0.133169, 0.459172, 0.073238, -1.401638, -0.257027, -2.803683
1515638028.62971, 0.14608, 0.484048, 0.082829, -1.400806, -0.228287, -2.795378
1515638028.63972, 0.162182, 0.514987, 0.087245, -1.400415, -0.200448, -2.788404
1515638028.6497, 0.176872, 0.535937, 0.088406, -1.400184, -0.173613, -2.782913
1515638028.65971, 0.199238, 0.558427, 0.081835, -1.399884, -0.14766, -2.778813
1515638028.66972, 0.225263, 0.576971, 0.074325, -1.399316, -0.122755, -2.775965
1515638028.67973, 0.261113, 0.589877, 0.072004, -1.398234, -0.09902, -2.77412
1515638028.68974, 0.296827, 0.59739, 0.070155, -1.3965, -0.076574, -2.773138
1515638028.69975, 0.334736, 0.605806, 0.067074, -1.394183, -0.055462, -2.772829
1515638028.70976, 0.365099, 0.61836, 0.067768, -1.391512, -0.035808, -2.77293
1515638028.71977, 0.381749, 0.642068, 0.07305, -1.388712, -0.017768, -2.773107
1515638028.72978, 0.396145, 0.668022, 0.084417, -1.385978, -0.001625, -2.773064
1515638028.73979, 0.409296, 0.683127, 0.092666, -1.383563, 0.012351, -2.772586
1515638028.7498, 0.419797, 0.693063, 0.104576, -1.381822, 0.023922, -2.771537
1515638028.75981, 0.432376, 0.686463, 0.122041, -1.38091, 0.032874, -2.769884
1515638028.76982, 0.4439, 0.667782, 0.131835, -1.380899, 0.039176, -2.767768
1515638028.77983, 0.449608, 0.644689, 0.125995, -1.381968, 0.043018, -2.765557
1515638028.78984, 0.438377, 0.624012, 0.116737, -1.384173, 0.044773, -2.763603
1515638028.79985, 0.413132, 0.616713, 0.110466, -1.387311, 0.044859, -2.762152
1515638028.80986, 0.364512, 0.651179, 0.094624, -1.391222, 0.043665, -2.761379
1515638028.81987, 0.313281, 0.730224, 0.086052, -1.395783, 0.041149, -2.761644
1515638028.82988, 0.288764, 0.768617, 0.104945, -1.400058, 0.036722, -2.763219
1515638028.83989, 0.300128, 0.749481, 0.133907, -1.402297, 0.029728, -2.766165
1515638028.8499, 0.327269, 0.708898, 0.115001, -1.401766, 0.020057, -2.77077
1515638028.85991, 0.332123, 0.685282, 0.067345, -1.399722, 0.008265, -2.777344
1515638028.86992, 0.31197, 0.693329, 0.044698, -1.397669, -0.005295, -2.785662
1515638028.87993, 0.283851, 0.697055, 0.069134, -1.395595, -0.020949, -2.794915
1515638028.88994, 0.259207, 0.685271, 0.098197, -1.392602, -0.039303, -2.804608
1515638028.89995, 0.242663, 0.661739, 0.098679, -1.388548, -0.060618, -2.81519
1515638028.90996, 0.217211, 0.610796, 0.080754, -1.384152, -0.084832, -2.827303
1515638028.91997, 0.172037, 0.562162, 0.052995, -1.380014, -0.111592, -2.840935
1515638028.92998, 0.112127, 0.513395, 0.016755, -1.376339, -0.140478, -2.855466
1515638028.93999, 0.057106, 0.44856, -0.012844, -1.373077, -0.171217, -2.870009
1515638028.95, 0.004693, 0.377586, -0.026574, -1.370026, -0.203638, -2.883577
1515638028.96001, -0.048541, 0.297607, -0.044063, -1.36701, -0.23733, -2.895101
1515638028.97002, -0.106193, 0.213258, -0.054223, -1.364222, -0.271527, -2.903507
1515638028.98003, -0.158174, 0.138869, -0.05561, -1.362088, -0.305145, -2.90796
1515638028.99001, -0.191407, 0.069053, -0.046789, -1.361135, -0.337009, -2.908196
1515638029.00001, -0.207378, 0.01886, -0.026248, -1.361766, -0.366388, -2.904623
1515638029.01002, -0.214843, -0.029725, -0.004864, -1.364316, -0.393071, -2.897903
1515638029.02003, -0.201697, -0.065952, 0.024087, -1.368663, -0.417365, -2.888835
1515638029.03004, -0.188373, -0.092716, 0.055833, -1.374166, -0.439796, -2.878373
1515638029.04005, -0.171083, -0.108598, 0.07899, -1.380124, -0.460996, -2.867633
1515638029.05006, -0.164816, -0.122393, 0.091696, -1.386085, -0.481429, -2.857678
1515638029.06007, -0.162831, -0.135566, 0.094038, -1.391776, -0.501302, -2.849356
1515638029.07008, -0.165114, -0.150472, 0.084251, -1.397093, -0.520541, -2.84319
1515638029.08009, -0.170195, -0.159842, 0.064023, -1.402003, -0.538968, -2.839342
1515638029.0901, -0.174922, -0.163353, 0.038165, -1.406641, -0.556433, -2.837733
1515638029.10011, -0.178343, -0.157971, 0.015585, -1.411071, -0.572838, -2.838095
1515638029.11012, -0.177589, -0.148903, -0.001521, -1.415301, -0.588107, -2.840245
1515638029.12013, -0.18492, -0.160603, -0.005943, -1.419224, -0.602236, -2.844019
1515638029.13014, -0.156196, -0.123519, -0.022584, -1.422694, -0.615306, -2.849208
1515638029.14015, -0.146362, -0.118566, -0.036256, -1.425619, -0.627475, -2.855444
1515638029.15016, -0.150955, -0.110798, -0.056078, -1.428243, -0.638963, -2.862204
1515638029.16017, -0.148706, -0.10825, -0.0615, -1.430679, -0.649958, -2.868824
1515638029.17018, -0.143157, -0.099232, -0.057927, -1.432972, -0.6606, -2.874903
1515638029.18019, -0.140209, -0.098506, -0.045477, -1.435082, -0.670988, -2.880349
1515638029.1902, -0.135687, -0.108111, -0.03583, -1.436967, -0.681386, -2.885447
1515638029.20021, -0.122134, -0.122928, -0.031174, -1.438675, -0.692101, -2.890548
1515638029.21022, -0.114201, -0.138683, -0.032139, -1.44034, -0.703242, -2.895975
1515638029.22023, -0.11258, -0.163417, -0.038161, -1.441961, -0.714781, -2.901592
1515638029.23024, -0.121853, -0.194363, -0.051084, -1.443519, -0.726704, -2.907046
1515638029.24025, -0.134805, -0.221457, -0.064196, -1.444983, -0.738911, -2.912003
1515638029.25026, -0.144939, -0.237879, -0.06461, -1.446442, -0.751247, -2.916575
1515638029.26027, -0.153269, -0.248763, -0.06821, -1.448053, -0.763475, -2.921125
1515638029.27028, -0.170667, -0.256897, -0.076875, -1.449982, -0.775522, -2.925943
1515638029.28029, -0.183689, -0.259963, -0.083427, -1.452177, -0.787493, -2.931185
1515638029.2903, -0.197663, -0.257094, -0.094265, -1.454663, -0.799524, -2.936902
1515638029.30031, -0.217604, -0.256122, -0.108478, -1.457465, -0.811735, -2.943056
1515638029.31032, -0.243585, -0.264778, -0.123723, -1.46043, -0.824307, -2.949493
1515638029.32033, -0.278902, -0.265723, -0.14766, -1.463463, -0.837341, -2.955978
1515638029.33034, -0.344625, -0.23728, -0.196703, -1.466963, -0.850612, -2.962291
1515638029.34032, -0.427104, -0.169576, -0.253503, -1.47173, -0.863759, -2.968512
1515638029.35033, -0.51433, -0.113377, -0.289134, -1.477923, -0.876824, -2.974625
1515638029.36034, -0.596017, -0.09378, -0.298291, -1.484647, -0.889994, -2.980119
1515638029.37035, -0.660937, -0.099806, -0.321789, -1.491031, -0.903365, -2.984754
1515638029.38035, -0.716058, -0.138455, -0.351338, -1.496897, -0.916788, -2.988855
1515638029.39037, -0.773429, -0.17504, -0.389735, -1.502962, -0.929808, -2.993319
1515638029.40037, -0.821938, -0.199047, -0.422961, -1.509816, -0.941778, -2.998844
1515638029.41038, -0.847818, -0.254149, -0.437705, -1.516543, -0.952284, -3.004351
1515638029.42039, -0.870076, -0.326792, -0.436644, -1.52082, -0.960961, -3.007206
1515638029.4304, -0.870447, -0.396222, -0.417573, -1.520363, -0.966958, -3.004788
1515638029.44041, -0.833839, -0.454782, -0.399948, -1.514411, -0.968944, -2.995929
1515638029.45042, -0.767657, -0.488502, -0.39544, -1.504167, -0.965607, -2.981141
1515638029.46043, -0.674914, -0.499144, -0.397325, -1.491943, -0.956401, -2.961859
1515638029.47044, -0.576854, -0.465014, -0.397898, -1.480351, -0.941632, -2.939674
1515638029.48045, -0.505766, -0.376419, -0.382316, -1.471052, -0.92213, -2.915944
1515638029.49046, -0.462903, -0.292014, -0.342238, -1.463436, -0.899297, -2.890847
1515638029.50047, -0.421906, -0.215052, -0.288447, -1.456208, -0.874617, -2.86446
1515638029.51048, -0.375689, -0.143312, -0.253268, -1.448656, -0.848988, -2.837321
1515638029.52049, -0.325266, -0.099654, -0.218406, -1.440703, -0.822813, -2.810326
1515638029.5305, -0.279181, -0.088763, -0.189714, -1.432504, -0.796339, -2.784119
1515638029.54048, -0.237081, -0.08406, -0.169555, -1.424381, -0.769555, -2.759209
1515638029.55049, -0.191425, -0.08302, -0.142836, -1.416673, -0.742124, -2.735899
1515638029.5605, -0.150599, -0.07576, -0.119376, -1.409722, -0.713676, -2.714423
1515638029.57051, -0.114475, -0.053214, -0.097874, -1.403807, -0.683987, -2.694991
1515638029.58052, -0.082495, -0.022458, -0.069709, -1.398936, -0.653038, -2.677566
1515638029.59053, -0.047751, 0.019727, -0.045385, -1.394814, -0.620984, -2.66193
1515638029.60054, -0.014912, 0.068107, -0.020255, -1.391259, -0.588144, -2.64777
1515638029.61055, 0.017911, 0.114747, 0.000753, -1.3884, -0.55495, -2.635033
1515638029.62056, 0.044621, 0.164991, 0.019796, -1.386448, -0.521822, -2.623632
1515638029.63057, 0.060588, 0.21389, 0.033348, -1.385603, -0.489146, -2.613581
1515638029.64058, 0.07734, 0.260493, 0.052224, -1.385904, -0.457239, -2.604903
1515638029.65059, 0.092694, 0.300062, 0.064466, -1.38724, -0.426429, -2.597786
1515638029.6606, 0.105215, 0.337398, 0.067305, -1.389462, -0.396943, -2.592398
1515638029.67061, 0.119491, 0.365696, 0.064618, -1.392373, -0.368886, -2.588915
1515638029.68059, 0.129281, 0.395696, 0.051067, -1.395726, -0.342287, -2.587324
1515638029.6906, 0.138993, 0.422003, 0.033811, -1.399259, -0.316886, -2.587439
1515638029.70061, 0.151872, 0.444167, 0.009535, -1.402739, -0.292675, -2.588819
1515638029.71062, 0.173463, 0.463188, -0.017544, -1.406027, -0.269605, -2.59101
1515638029.72063, 0.191021, 0.476149, -0.038261, -1.40906, -0.247627, -2.593439
1515638029.73064, 0.20641, 0.482895, -0.048755, -1.411794, -0.226792, -2.595409
1515638029.74065, 0.216344, 0.485767, -0.046781, -1.414171, -0.207117, -2.596211
1515638029.75066, 0.231988, 0.490396, -0.027891, -1.41611, -0.188576, -2.59563
1515638029.76067, 0.25551, 0.487108, -0.002168, -1.417546, -0.171198, -2.594048
1515638029.77068, 0.281108, 0.479297, 0.016109, -1.418491, -0.155005, -2.592359
1515638029.78068, 0.304931, 0.473977, 0.030359, -1.418959, -0.14002, -2.591386
1515638029.79069, 0.321513, 0.480999, 0.037157, -1.418939, -0.126193, -2.591678
1515638029.8007, 0.328227, 0.493704, 0.043136, -1.418317, -0.113657, -2.593277
1515638029.81071, 0.328272, 0.507026, 0.040397, -1.417018, -0.102667, -2.595936
1515638029.82072, 0.330603, 0.517024, 0.037129, -1.415116, -0.093371, -2.59909
1515638029.83073, 0.328503, 0.520823, 0.03365, -1.412834, -0.085834, -2.602215
1515638029.84074, 0.326328, 0.518566, 0.031788, -1.410587, -0.079923, -2.604851
1515638029.85075, 0.31617, 0.523377, 0.024059, -1.409101, -0.075373, -2.606968
1515638029.86076, 0.262892, 0.575963, 0.00383, -1.409501, -0.071544, -2.609074
1515638029.87077, 0.211586, 0.672939, -0.019614, -1.412163, -0.068248, -2.612309
1515638029.88078, 0.128815, 0.8141, -0.024279, -1.416393, -0.066075, -2.617266
1515638029.89079, 0.129462, 0.814291, -0.028409, -1.420582, -0.065883, -2.623709
1515638029.9008, 0.146775, 0.770566, -0.032741, -1.423153, -0.068477, -2.631033
1515638029.91081, 0.177365, 0.70176, -0.052289, -1.423093, -0.074248, -2.638556
1515638029.92082, 0.232744, 0.614027, -0.078223, -1.420353, -0.082922, -2.645897
1515638029.93083, 0.274031, 0.525974, -0.095289, -1.415561, -0.093869, -2.652768
1515638029.94084, 0.301789, 0.439459, -0.101018, -1.409527, -0.106365, -2.658828
1515638029.95085, 0.319799, 0.386515, -0.102078, -1.40307, -0.119783, -2.663721
1515638029.96086, 0.306903, 0.36334, -0.094777, -1.397095, -0.133532, -2.667502
1515638029.97087, 0.268309, 0.366043, -0.062389, -1.392281, -0.147214, -2.670061
1515638029.98088, 0.223909, 0.381262, -0.000384, -1.388762, -0.160858, -2.670942
1515638029.99089, 0.185251, 0.395436, 0.052348, -1.386022, -0.17499, -2.669696
1515638030.0009, 0.161249, 0.375311, 0.085589, -1.383487, -0.190025, -2.666348
1515638030.01091, 0.139632, 0.323822, 0.105109, -1.380997, -0.206107, -2.661263
1515638030.02089, 0.111409, 0.266591, 0.115477, -1.378648, -0.223188, -2.654942
1515638030.0309, 0.077868, 0.218444, 0.125479, -1.376437, -0.2411, -2.647596
1515638030.04091, 0.054056, 0.181341, 0.141636, -1.374145, -0.259457, -2.63965
1515638030.05092, 0.0458, 0.135847, 0.14862, -1.371221, -0.277681, -2.6317
1515638030.06093, 0.057641, 0.092199, 0.147377, -1.367317, -0.295203, -2.624698
1515638030.07094, 0.051938, 0.076527, 0.150688, -1.362699, -0.311625, -2.619822
1515638030.08095, 0.084513, 0.057362, 0.121583, -1.358108, -0.326716, -2.61821
1515638030.09096, 0.087582, 0.060647, 0.118264, -1.353973, -0.340421, -2.620419
1515638030.10097, 0.086828, 0.076996, 0.12182, -1.350012, -0.352906, -2.62625
1515638030.11098, 0.095652, 0.09215, 0.123482, -1.345634, -0.364507, -2.634926
1515638030.12099, 0.112824, 0.095846, 0.115066, -1.340565, -0.375584, -2.645709
1515638030.131, 0.12761, 0.092437, 0.102014, -1.335058, -0.386489, -2.657952
1515638030.14101, 0.136193, 0.090675, 0.081238, -1.329745, -0.397527, -2.671366
1515638030.15102, 0.134299, 0.090232, 0.070346, -1.32532, -0.40894, -2.685544
1515638030.16103, 0.122676, 0.097671, 0.062383, -1.322125, -0.420803, -2.700019
1515638030.17104, 0.115263, 0.104412, 0.046462, -1.320225, -0.433078, -2.714232
1515638030.18105, 0.11125, 0.109021, 0.027937, -1.319679, -0.445706, -2.72791
1515638030.19106, 0.103432, 0.113441, 0.006468, -1.320633, -0.458586, -2.740853
1515638030.20107, 0.096042, 0.119763, -0.018335, -1.323274, -0.471658, -2.75287
1515638030.21108, 0.087111, 0.142986, -0.04171, -1.327766, -0.484945, -2.763762
1515638030.22108, 0.070267, 0.169069, -0.056661, -1.334066, -0.498596, -2.773369
1515638030.23109, 0.037549, 0.17843, -0.064042, -1.341598, -0.512997, -2.781441
1515638030.2411, 0.009061, 0.168925, -0.065037, -1.349512, -0.528616, -2.78754
1515638030.25111, -0.020041, 0.150957, -0.070287, -1.357081, -0.545604, -2.79153
1515638030.26112, -0.047488, 0.110189, -0.065922, -1.363785, -0.563874, -2.793458
1515638030.27113, -0.070423, 0.061128, -0.060252, -1.369436, -0.583261, -2.793711
1515638030.28114, -0.097304, 0.015596, -0.063024, -1.374087, -0.603545, -2.79283
1515638030.29115, -0.121751, -0.02724, -0.059595, -1.37806, -0.624422, -2.791471
1515638030.30116, -0.146806, -0.070612, -0.048785, -1.381643, -0.645563, -2.790112
1515638030.31117, -0.175533, -0.101055, -0.042064, -1.384908, -0.666749, -2.78914
1515638030.32118, -0.199959, -0.127278, -0.040964, -1.38804, -0.687829, -2.788891
1515638030.33119, -0.231659, -0.142908, -0.041261, -1.391288, -0.708795, -2.789701
1515638030.3412, -0.263342, -0.161992, -0.041623, -1.394786, -0.729618, -2.79174
1515638030.35121, -0.288239, -0.182775, -0.054469, -1.39856, -0.750259, -2.795069
1515638030.36122, -0.313962, -0.211668, -0.072032, -1.402701, -0.77068, -2.79955
1515638030.3712, -0.346852, -0.236314, -0.095888, -1.40729, -0.790745, -2.805052
1515638030.38121, -0.382689, -0.259407, -0.11629, -1.412444, -0.8105, -2.811545
1515638030.39122, -0.434406, -0.266343, -0.139652, -1.418364, -0.829729, -2.819166
1515638030.40123, -0.520553, -0.221408, -0.179546, -1.425936, -0.847813, -2.828319
1515638030.41124, -0.590199, -0.175749, -0.224496, -1.436585, -0.864054, -2.840071
1515638030.42125, -0.63995, -0.17713, -0.243401, -1.45035, -0.878475, -2.854613
1515638030.43126, -0.672581, -0.194025, -0.241712, -1.465266, -0.891637, -2.870711
1515638030.44127, -0.697318, -0.18963, -0.265409, -1.479658, -0.903948, -2.887322
1515638030.45128, -0.722575, -0.174717, -0.31024, -1.493995, -0.915272, -2.904855
1515638030.46129, -0.746002, -0.183567, -0.350452, -1.509629, -0.925402, -2.924173
1515638030.4713, -0.761825, -0.235706, -0.35519, -1.525853, -0.934641, -2.944587
1515638030.48131, -0.774716, -0.30241, -0.352248, -1.539804, -0.943464, -2.963617
1515638030.49132, -0.774269, -0.357814, -0.367694, -1.549315, -0.951778, -2.979124
1515638030.50133, -0.760246, -0.409531, -0.391293, -1.554376, -0.958817, -2.990277
1515638030.51134, -0.734773, -0.459483, -0.409514, -1.556111, -0.963632, -2.997135
1515638030.52135, -0.704977, -0.490742, -0.415561, -1.5553, -0.965522, -2.999486
1515638030.53136, -0.670074, -0.501246, -0.409673, -1.552149, -0.96414, -2.996752
1515638030.54133, -0.621955, -0.491381, -0.387466, -1.546657, -0.959378, -2.988487
1515638030.55134, -0.549154, -0.462049, -0.360299, -1.53914, -0.951282, -2.97496
1515638030.56135, -0.480076, -0.425045, -0.336319, -1.530416, -0.940171, -2.957061
1515638030.57136, -0.420718, -0.390289, -0.314918, -1.521343, -0.926638, -2.935531
1515638030.58137, -0.357918, -0.358167, -0.296988, -1.512262, -0.911142, -2.910899
1515638030.59138, -0.298978, -0.320726, -0.277044, -1.503552, -0.894081, -2.883663
1515638030.60139, -0.253338, -0.290247, -0.251311, -1.495527, -0.87576, -2.854541
1515638030.6114, -0.214196, -0.264282, -0.216565, -1.488108, -0.856429, -2.824163
1515638030.62141, -0.181206, -0.244922, -0.180983, -1.481096, -0.836196, -2.793183
1515638030.63142, -0.143734, -0.232776, -0.140901, -1.474667, -0.815089, -2.762323
1515638030.64143, -0.115579, -0.219452, -0.103958, -1.469081, -0.793111, -2.732291
1515638030.65144, -0.095586, -0.201366, -0.068494, -1.464603, -0.770357, -2.703704
1515638030.66145, -0.080141, -0.176992, -0.043346, -1.461362, -0.747095, -2.677083
1515638030.67146, -0.070098, -0.150304, -0.013037, -1.459291, -0.723514, -2.652761
1515638030.68147, -0.06357, -0.131307, 0.009804, -1.458089, -0.699779, -2.630984
1515638030.69148, -0.055985, -0.103799, 0.015689, -1.457548, -0.676022, -2.611835
1515638030.70149, -0.054777, -0.069905, 0.004929, -1.457832, -0.652241, -2.595445
1515638030.71146, -0.060328, -0.033157, -0.008394, -1.459179, -0.628486, -2.581731
1515638030.72147, -0.064539, 0.00743, -0.018496, -1.461447, -0.604679, -2.57031
1515638030.73148, -0.064382, 0.051807, -0.034755, -1.464322, -0.580902, -2.560823
1515638030.74149, -0.056948, 0.088326, -0.049087, -1.467542, -0.557223, -2.553092
1515638030.7515, -0.048351, 0.12069, -0.072144, -1.470973, -0.533662, -2.546901
1515638030.76151, -0.03666, 0.152462, -0.096589, -1.474576, -0.510315, -2.542004
1515638030.77152, -0.029214, 0.185236, -0.119686, -1.478326, -0.487225, -2.537976
1515638030.78153, -0.022934, 0.21461, -0.13541, -1.482123, -0.464496, -2.534464
1515638030.79154, -0.015461, 0.248941, -0.151944, -1.485855, -0.442194, -2.53118
1515638030.80155, -0.009168, 0.282391, -0.169046, -1.489508, -0.420238, -2.527964
1515638030.81156, 0.005732, 0.306279, -0.179989, -1.493033, -0.398522, -2.524716
1515638030.82157, 0.027729, 0.32941, -0.186221, -1.496191, -0.376948, -2.521353
1515638030.83158, 0.049345, 0.36082, -0.180909, -1.498811, -0.355417, -2.517805
1515638030.84159, 0.071744, 0.405594, -0.166384, -1.500748, -0.333704, -2.514133
1515638030.8516, 0.092221, 0.450186, -0.148373, -1.501805, -0.31164, -2.510457
1515638030.86161, 0.118323, 0.495719, -0.125684, -1.501882, -0.289353, -2.506901
1515638030.87162, 0.143326, 0.536318, -0.103817, -1.500892, -0.267078, -2.503662
1515638030.88163, 0.165808, 0.556921, -0.071332, -1.498767, -0.245353, -2.500746
1515638030.89164, 0.186899, 0.560499, -0.033614, -1.495403, -0.224791, -2.498204
1515638030.90165, 0.208745, 0.552966, -0.002092, -1.490763, -0.205824, -2.49605
1515638030.91166, 0.230989, 0.542668, 0.013321, -1.485236, -0.188705, -2.494432
1515638030.92167, 0.219877, 0.55132, 0.016218, -1.479615, -0.17341, -2.49352
1515638030.93168, 0.183214, 0.613208, -0.00049, -1.475391, -0.159377, -2.493634
1515638030.94169, 0.169116, 0.654054, -0.009425, -1.473408, -0.14624, -2.495226
1515638030.9517, 0.148256, 0.666155, -0.001806, -1.473242, -0.134405, -2.498193
1515638030.96171, 0.165203, 0.650647, 0.019031, -1.473359, -0.124439, -2.501728
1515638030.97172, 0.225015, 0.621054, 0.029211, -1.472229, -0.116652, -2.505339
1515638030.98173, 0.287718, 0.591664, 0.00175, -1.469561, -0.110756, -2.509116
1515638030.99174, 0.313615, 0.598409, -0.049028, -1.466524, -0.106013, -2.513631
1515638031.00175, 0.319598, 0.621414, -0.088915, -1.464394, -0.10206, -2.519477
1515638031.01176, 0.307959, 0.619842, -0.083349, -1.462976, -0.0993, -2.526652
1515638031.02177, 0.316787, 0.596722, -0.049385, -1.460551, -0.098398, -2.534448
1515638031.03178, 0.351969, 0.562912, -0.033288, -1.455647, -0.099545, -2.542221
1515638031.04179, 0.383179, 0.517131, -0.046168, -1.448525, -0.102387, -2.549688
1515638031.0518, 0.39907, 0.475857, -0.065009, -1.440454, -0.106559, -2.556872
1515638031.06178, 0.40422, 0.442551, -0.069684, -1.432651, -0.111989, -2.563439
1515638031.07179, 0.39724, 0.4081, -0.054082, -1.425611, -0.118775, -2.568661
1515638031.0818, 0.378526, 0.379238, -0.035984, -1.419411, -0.126947, -2.571605
1515638031.0918, 0.36278, 0.355884, -0.021567, -1.414173, -0.136436, -2.571745
1515638031.10181, 0.343888, 0.329204, -0.003774, -1.410202, -0.146879, -2.569082
1515638031.11182, 0.317777, 0.303939, 0.023155, -1.407723, -0.157913, -2.564049
1515638031.12183, 0.284489, 0.285468, 0.052419, -1.406666, -0.169164, -2.557149
1515638031.13184, 0.254613, 0.268541, 0.08583, -1.406753, -0.180357, -2.548854
1515638031.14185, 0.242897, 0.254491, 0.11251, -1.407681, -0.191284, -2.539661
1515638031.15186, 0.236978, 0.239756, 0.131991, -1.409244, -0.201984, -2.530241
1515638031.16187, 0.233302, 0.229889, 0.146674, -1.411171, -0.21255, -2.521329
1515638031.17188, 0.231212, 0.220322, 0.160407, -1.412982, -0.223083, -2.513775
1515638031.18189, 0.235011, 0.213714, 0.168652, -1.414113, -0.233548, -2.508353
1515638031.1919, 0.243231, 0.211056, 0.167069, -1.414104, -0.24401, -2.505676
1515638031.20191, 0.250001, 0.221178, 0.155974, -1.412754, -0.254586, -2.506235
1515638031.21192, 0.254674, 0.242387, 0.127773, -1.410165, -0.26545, -2.510101
1515638031.22193, 0.250489, 0.26642, 0.096564, -1.406635, -0.276837, -2.51688
1515638031.23194, 0.246029, 0.291467, 0.063879, -1.402576, -0.289033, -2.52576
1515638031.24195, 0.231532, 0.320425, 0.033951, -1.398428, -0.302212, -2.536082
1515638031.25196, 0.213252, 0.336682, 0.015364, -1.394488, -0.316478, -2.547481
1515638031.26197, 0.188211, 0.35605, 0.00664, -1.390734, -0.331943, -2.559896
1515638031.27198, 0.162549, 0.364513, 0.003237, -1.386938, -0.348784, -2.573339
1515638031.28199, 0.145767, 0.386372, -0.002277, -1.382843, -0.367234, -2.587919
1515638031.292, 0.142172, 0.421374, -0.003679, -1.378323, -0.387458, -2.603706
1515638031.30201, 0.133353, 0.441871, -0.012429, -1.373489, -0.409755, -2.620317
1515638031.31202, 0.109993, 0.441803, -0.023305, -1.368476, -0.434621, -2.636507
1515638031.32203, 0.075377, 0.422993, -0.034694, -1.36366, -0.46278, -2.650593
1515638031.33204, 0.008701, 0.374607, -0.042135, -1.359792, -0.49481, -2.660813
1515638031.34205, -0.097927, 0.296603, -0.042614, -1.357397, -0.530428, -2.665799
1515638031.35206, -0.207322, 0.199815, -0.020184, -1.356664, -0.568453, -2.665125
1515638031.36207, -0.329148, 0.100749, 0.017531, -1.357016, -0.607394, -2.659521
1515638031.37208, -0.417035, -0.018203, 0.028049, -1.357715, -0.64578, -2.65021
1515638031.38209, -0.469761, -0.130079, 0.017375, -1.358762, -0.682599, -2.638953
1515638031.3921, -0.513845, -0.215302, -0.001032, -1.360887, -0.71768, -2.627921
1515638031.40211, -0.555198, -0.270494, -0.013398, -1.364499, -0.751132, -2.618938
1515638031.41209, -0.587452, -0.298819, -0.011781, -1.369168, -0.782757, -2.61306
1515638031.4221, -0.614967, -0.320598, -0.022874, -1.373905, -0.812323, -2.610559
1515638031.43211, -0.617235, -0.349815, -0.045195, -1.377828, -0.839099, -2.611313
1515638031.44212, -0.59252, -0.37221, -0.081855, -1.380881, -0.862674, -2.615322
1515638031.45213, -0.572067, -0.359985, -0.126202, -1.384198, -0.882803, -2.62283
1515638031.46214, -0.56898, -0.295117, -0.176745, -1.389544, -0.899306, -2.634019
1515638031.47215, -0.573595, -0.228353, -0.205178, -1.397425, -0.912575, -2.647995
1515638031.48216, -0.58396, -0.203358, -0.205166, -1.406355, -0.923527, -2.662877
1515638031.49216, -0.572977, -0.195394, -0.196208, -1.414589, -0.932926, -2.677297
1515638031.50217, -0.543032, -0.198343, -0.200515, -1.421786, -0.941049, -2.691433
1515638031.51218, -0.527584, -0.180692, -0.226583, -1.429731, -0.947744, -2.70699
1515638031.52219, -0.54831, -0.136646, -0.264356, -1.440562, -0.95295, -2.725599
1515638031.5322, -0.591029, -0.126418, -0.281123, -1.454101, -0.95709, -2.74686
1515638031.54219, -0.619822, -0.146624, -0.281222, -1.467794, -0.960681, -2.768687
1515638031.5522, -0.612009, -0.183149, -0.280799, -1.478977, -0.963797, -2.789028
1515638031.56221, -0.575829, -0.201179, -0.288075, -1.487255, -0.965715, -2.807211
1515638031.57222, -0.540601, -0.206001, -0.30749, -1.494524, -0.96577, -2.824028
1515638031.58223, -0.525509, -0.216334, -0.317684, -1.50227, -0.964166, -2.839848
1515638031.59224, -0.528518, -0.220681, -0.315498, -1.510289, -0.961625, -2.854008
1515638031.60225, -0.530617, -0.217709, -0.312914, -1.517658, -0.958757, -2.865573
1515638031.61226, -0.513592, -0.235851, -0.314802, -1.523784, -0.955708, -2.874024
1515638031.62226, -0.480532, -0.277987, -0.327112, -1.528669, -0.952237, -2.879116
1515638031.63227, -0.445972, -0.31832, -0.344883, -1.53265, -0.948073, -2.880941
1515638031.64228, -0.416362, -0.348947, -0.353521, -1.535671, -0.943097, -2.879425
1515638031.65229, -0.387008, -0.371761, -0.345417, -1.537086, -0.937201, -2.874131
1515638031.6623, -0.35387, -0.382658, -0.334053, -1.535999, -0.930304, -2.864523
1515638031.67231, -0.347713, -0.377961, -0.331382, -1.531933, -0.922485, -2.850336
1515638031.68232, -0.291293, -0.350382, -0.284258, -1.524927, -0.913982, -2.83164
1515638031.69233, -0.272174, -0.338836, -0.240924, -1.515164, -0.90502, -2.808497
1515638031.70234, -0.24851, -0.348381, -0.180732, -1.502914, -0.895896, -2.781085
1515638031.71235, -0.229287, -0.365929, -0.119311, -1.488735, -0.886719, -2.749997
1515638031.72236, -0.206339, -0.391183, -0.066199, -1.473523, -0.877499, -2.716269
1515638031.73237, -0.179272, -0.42361, -0.021754, -1.458375, -0.868314, -2.681331
1515638031.74238, -0.156013, -0.45701, 0.005305, -1.444433, -0.859197, -2.646452
1515638031.75236, -0.146752, -0.484551, 0.013344, -1.432859, -0.850106, -2.612622
1515638031.76237, -0.161677, -0.492895, 0.006663, -1.424429, -0.840696, -2.579981
1515638031.77238, -0.196062, -0.47473, -0.015435, -1.419722, -0.83054, -2.548719
1515638031.78239, -0.237627, -0.436285, -0.049705, -1.418905, -0.818949, -2.518691
1515638031.7924, -0.265661, -0.389029, -0.066599, -1.421639, -0.805397, -2.489991
1515638031.80241, -0.284667, -0.317831, -0.082049, -1.427582, -0.789646, -2.463263
1515638031.81242, -0.288588, -0.244741, -0.103252, -1.436524, -0.771818, -2.439775
1515638031.82243, -0.288296, -0.163951, -0.129721, -1.447995, -0.752398, -2.420559
1515638031.83244, -0.281978, -0.080385, -0.177943, -1.461277, -0.731971, -2.406008
1515638031.84245, -0.258977, -0.005454, -0.237233, -1.475548, -0.710983, -2.395796
1515638031.85246, -0.231402, 0.064166, -0.288476, -1.489965, -0.689599, -2.389334
1515638031.86247, -0.20091, 0.109968, -0.334444, -1.503493, -0.667728, -2.385643
1515638031.87248, -0.167709, 0.147686, -0.386163, -1.515169, -0.645116, -2.383471
1515638031.88249, -0.1367, 0.193378, -0.434928, -1.524487, -0.621464, -2.38164
1515638031.8925, -0.107826, 0.242184, -0.467979, -1.531285, -0.596618, -2.379142
1515638031.90251, -0.089954, 0.297811, -0.477493, -1.535251, -0.570622, -2.375243
1515638031.91252, -0.064102, 0.353009, -0.46398, -1.535978, -0.54354, -2.369458
1515638031.92253, -0.01487, 0.411346, -0.422595, -1.533487, -0.515531, -2.361999
1515638031.93254, 0.032457, 0.47583, -0.362643, -1.528089, -0.486926, -2.353593
1515638031.94255, 0.082529, 0.52408, -0.309385, -1.520393, -0.458252, -2.345103
1515638031.95256, 0.1256, 0.568977, -0.278123, -1.511266, -0.430108, -2.337135
1515638031.96257, 0.164557, 0.60946, -0.238493, -1.501422, -0.402892, -2.330021
1515638031.97258, 0.18444, 0.636009, -0.194882, -1.491197, -0.37696, -2.323573
1515638031.98258, 0.19793, 0.657847, -0.161553, -1.480797, -0.35231, -2.317307
1515638031.9926, 0.206683, 0.687348, -0.132085, -1.470765, -0.328557, -2.310972
1515638032.00261, 0.22003, 0.721145, -0.101459, -1.461745, -0.305304, -2.304761
1515638032.01262, 0.241124, 0.751542, -0.077797, -1.454169, -0.282569, -2.298997
1515638032.02263, 0.262571, 0.776485, -0.050506, -1.447905, -0.260699, -2.293954
1515638032.03263, 0.27175, 0.806674, -0.022771, -1.442749, -0.240121, -2.289708
1515638032.04264, 0.286886, 0.844911, -0.008419, -1.438454, -0.221173, -2.286423
1515638032.05265, 0.311328, 0.860833, 0.018572, -1.434619, -0.204197, -2.28413
1515638032.06266, 0.329273, 0.866733, 0.044703, -1.430834, -0.189669, -2.283019
1515638032.07267, 0.376863, 0.839465, 0.073239, -1.426392, -0.177998, -2.283279
1515638032.08268, 0.444516, 0.762371, 0.108679, -1.42048, -0.169547, -2.284951
1515638032.09269, 0.530663, 0.647864, 0.129853, -1.412837, -0.164383, -2.287785
1515638032.10267, 0.611448, 0.547315, 0.135061, -1.403933, -0.161965, -2.291626
1515638032.11268, 0.653401, 0.475212, 0.117508, -1.394943, -0.161614, -2.296145
1515638032.12269, 0.654861, 0.426394, 0.094798, -1.38735, -0.162918, -2.300498
1515638032.1327, 0.617868, 0.415275, 0.068937, -1.382212, -0.165574, -2.303611
1515638032.14271, 0.563111, 0.437591, 0.061829, -1.379536, -0.169296, -2.304548
1515638032.15272, 0.498142, 0.469362, 0.073112, -1.378742, -0.173939, -2.30264
1515638032.16273, 0.435107, 0.499061, 0.078372, -1.379396, -0.179343, -2.297809
1515638032.17274, 0.385297, 0.521098, 0.089377, -1.381046, -0.185298, -2.290395
1515638032.18275, 0.363836, 0.533891, 0.125508, -1.382905, -0.191598, -2.281072
1515638032.19276, 0.358499, 0.538479, 0.153198, -1.384404, -0.198229, -2.270907
1515638032.20277, 0.357055, 0.535536, 0.172958, -1.385439, -0.205501, -2.261281
1515638032.21278, 0.358105, 0.526823, 0.195004, -1.386002, -0.21377, -2.253166
1515638032.22279, 0.361033, 0.514431, 0.2174, -1.386234, -0.223212, -2.247015
1515638032.2328, 0.350319, 0.49972, 0.225803, -1.386473, -0.233961, -2.242954
1515638032.24281, 0.337327, 0.473956, 0.224583, -1.387043, -0.245985, -2.240722
1515638032.25282, 0.321986, 0.462073, 0.216001, -1.388297, -0.25914, -2.240161
1515638032.26283, 0.300942, 0.452974, 0.202043, -1.39024, -0.273254, -2.241253
1515638032.27284, 0.277592, 0.438381, 0.189565, -1.392528, -0.288362, -2.244018
1515638032.28285, 0.250004, 0.418395, 0.166008, -1.394801, -0.304553, -2.248436
1515638032.29286, 0.224811, 0.398455, 0.129874, -1.396983, -0.321936, -2.254512
1515638032.30287, 0.201187, 0.376841, 0.095496, -1.399171, -0.34063, -2.262156
1515638032.31288, 0.165713, 0.351435, 0.064506, -1.401148, -0.360534, -2.271029
1515638032.32289, 0.129516, 0.323268, 0.035228, -1.402476, -0.38149, -2.28071
1515638032.3329, 0.106607, 0.301534, -0.01437, -1.402893, -0.403328, -2.291066
1515638032.34291, 0.097615, 0.280943, -0.015548, -1.402518, -0.425826, -2.301964
1515638032.35292, 0.081968, 0.253568, -0.042159, -1.401626, -0.448835, -2.313129
1515638032.36293, 0.034927, 0.242597, -0.071486, -1.400362, -0.472223, -2.324078
1515638032.37294, -0.00972, 0.236912, -0.083864, -1.398822, -0.495938, -2.334391
1515638032.38295, -0.053699, 0.23345, -0.084948, -1.397061, -0.520072, -2.343806
1515638032.39296, -0.0942, 0.222783, -0.084109, -1.395079, -0.544672, -2.352271
1515638032.40297, -0.132366, 0.205699, -0.078197, -1.392767, -0.569782, -2.359676
1515638032.41298, -0.166234, 0.17915, -0.073939, -1.390072, -0.595437, -2.366051
1515638032.42299, -0.185463, 0.14666, -0.07396, -1.387148, -0.621515, -2.371665
1515638032.43299, -0.198694, 0.110602, -0.076668, -1.38442, -0.647818, -2.377136
1515638032.443, -0.209678, 0.084267, -0.083363, -1.382421, -0.674144, -2.383202
1515638032.45298, -0.225045, 0.064569, -0.106879, -1.381759, -0.700438, -2.390693
1515638032.46299, -0.254117, 0.048351, -0.128232, -1.382818, -0.72704, -2.400135
1515638032.473, -0.2989, 0.044674, -0.155894, -1.38542, -0.753999, -2.411359
1515638032.48301, -0.342957, 0.030763, -0.186495, -1.389082, -0.781284, -2.423872
1515638032.49302, -0.38316, 0.0006, -0.20569, -1.393103, -0.808845, -2.437058
1515638032.50303, -0.414337, -0.049435, -0.216596, -1.396736, -0.836597, -2.450346
1515638032.51304, -0.434634, -0.113348, -0.215871, -1.399333, -0.864347, -2.463377
1515638032.52305, -0.449438, -0.180345, -0.22194, -1.400514, -0.891866, -2.476112
1515638032.53306, -0.466937, -0.228078, -0.236578, -1.400646, -0.918786, -2.488811
1515638032.54302, -0.510794, -0.236496, -0.253248, -1.40092, -0.944616, -2.50193
1515638032.55303, -0.587321, -0.194939, -0.275932, -1.402755, -0.96897, -2.515624
1515638032.56304, -0.673149, -0.147671, -0.284306, -1.406808, -0.991531, -2.529526
1515638032.57305, -0.74946, -0.114675, -0.27305, -1.411818, -1.012569, -2.542427
1515638032.58306, -0.805636, -0.101045, -0.260914, -1.415884, -1.032648, -2.552936
1515638032.59307, -0.854101, -0.111163, -0.257446, -1.417928, -1.051897, -2.560483
1515638032.60308, -0.872059, -0.155998, -0.265798, -1.418564, -1.070326, -2.565766
1515638032.61309, -0.869624, -0.23724, -0.248013, -1.418661, -1.087854, -2.569906
1515638032.6231, -0.867102, -0.314505, -0.207514, -1.418135, -1.104399, -2.573446
1515638032.63311, -0.871447, -0.374505, -0.179922, -1.416751, -1.1196, -2.576848
1515638032.64312, -0.861907, -0.429396, -0.167036, -1.415353, -1.132919, -2.581142
1515638032.65313, -0.847781, -0.48098, -0.162134, -1.415299, -1.143789, -2.587525
1515638032.66314, -0.820965, -0.520408, -0.152359, -1.417202, -1.151706, -2.596401
1515638032.67315, -0.778201, -0.540225, -0.145805, -1.420451, -1.156256, -2.60693
1515638032.68316, -0.718897, -0.55349, -0.143632, -1.423813, -1.157141, -2.617549
1515638032.69317, -0.661591, -0.562639, -0.134346, -1.426426, -1.154401, -2.626712
1515638032.70318, -0.602853, -0.565986, -0.115011, -1.427831, -1.148306, -2.633525
1515638032.71319, -0.537714, -0.549435, -0.08432, -1.42773, -1.139291, -2.637814
1515638032.7232, -0.481422, -0.525369, -0.050128, -1.426135, -1.127896, -2.640102
1515638032.73321, -0.416734, -0.501625, -0.011066, -1.423288, -1.114655, -2.641051
1515638032.74322, -0.355844, -0.485282, 0.030773, -1.419043, -1.100009, -2.640687
1515638032.75323, -0.304102, -0.474122, 0.062818, -1.413259, -1.084423, -2.638684
1515638032.76324, -0.259774, -0.468692, 0.08423, -1.406245, -1.068318, -2.634955
1515638032.77325, -0.236981, -0.465426, 0.101202, -1.398569, -1.05205, -2.629434
1515638032.78326, -0.238775, -0.454201, 0.112169, -1.390983, -1.035855, -2.622302
1515638032.79327, -0.263238, -0.439198, 0.121377, -1.384298, -1.019723, -2.613807
1515638032.80325, -0.30826, -0.419203, 0.124801, -1.379205, -1.00349, -2.60429
1515638032.81326, -0.345231, -0.39616, 0.122275, -1.375859, -0.986697, -2.593971
1515638032.82327, -0.370497, -0.362532, 0.116122, -1.374349, -0.968953, -2.583483
1515638032.83328, -0.391289, -0.320408, 0.103304, -1.374762, -0.950006, -2.573659
1515638032.84329, -0.400533, -0.279257, 0.085864, -1.377043, -0.929858, -2.565145
1515638032.8533, -0.399261, -0.23355, 0.060855, -1.380833, -0.908634, -2.55831
1515638032.86331, -0.392258, -0.18539, 0.035436, -1.3858, -0.886481, -2.553348
1515638032.87332, -0.381293, -0.141452, 0.005598, -1.391573, -0.863545, -2.550305
1515638032.88333, -0.368229, -0.099025, -0.027768, -1.397751, -0.83995, -2.549035
1515638032.89334, -0.343683, -0.060557, -0.061347, -1.403807, -0.815833, -2.549057
1515638032.90335, -0.317327, -0.021308, -0.096866, -1.409362, -0.791252, -2.549752
1515638032.91336, -0.2945, 0.013553, -0.129909, -1.414298, -0.766157, -2.550426
1515638032.92337, -0.275597, 0.054362, -0.160055, -1.41869, -0.7405, -2.550412
1515638032.93338, -0.253354, 0.088703, -0.178255, -1.422627, -0.714298, -2.549208
1515638032.94338, -0.22891, 0.114249, -0.189382, -1.426072, -0.687638, -2.546377
1515638032.95339, -0.211335, 0.145009, -0.192473, -1.428939, -0.660647, -2.541584
1515638032.9634, -0.19611, 0.177647, -0.183864, -1.431282, -0.6333, -2.534818
1515638032.97341, -0.176926, 0.213557, -0.171439, -1.43333, -0.605592, -2.526541
1515638032.98342, -0.165459, 0.249098, -0.160056, -1.435358, -0.577572, -2.517318
1515638032.99343, -0.16569, 0.297957, -0.153071, -1.437575, -0.549306, -2.507491
1515638033.00344, -0.168381, 0.348093, -0.140343, -1.440059, -0.520894, -2.49714
1515638033.01345, -0.171118, 0.386276, -0.120392, -1.442699, -0.492511, -2.486279
1515638033.02346, -0.173932, 0.411773, -0.096518, -1.445335, -0.464269, -2.474997
1515638033.03347, -0.167382, 0.433734, -0.071602, -1.44785, -0.436217, -2.4636
1515638033.04348, -0.156648, 0.45888, -0.048646, -1.450251, -0.408347, -2.452689
1515638033.05349, -0.14651, 0.505351, -0.0407, -1.452785, -0.380668, -2.443197
1515638033.0635, -0.151323, 0.584958, -0.053198, -1.456045, -0.353203, -2.436273
1515638033.07351, -0.156124, 0.681662, -0.062239, -1.460527, -0.325989, -2.432956
1515638033.08352, -0.147184, 0.739874, -0.059565, -1.465713, -0.299335, -2.43363
1515638033.09353, -0.116439, 0.74722, -0.055394, -1.469915, -0.27413, -2.437694
1515638033.10354, -0.096756, 0.754283, -0.072483, -1.471739, -0.251188, -2.444079
1515638033.11355, -0.068627, 0.787471, -0.115043, -1.471203, -0.230698, -2.452096
1515638033.12356, -0.007068, 0.799488, -0.150139, -1.469009, -0.212452, -2.461334
1515638033.13357, 0.08503, 0.739369, -0.143811, -1.465047, -0.196587, -2.470996
1515638033.14358, 0.198237, 0.616209, -0.111919, -1.458269, -0.183619, -2.479633
1515638033.15356, 0.298484, 0.499099, -0.093876, -1.448012, -0.173725, -2.485826
1515638033.16357, 0.383759, 0.399741, -0.100317, -1.434944, -0.166131, -2.488983
1515638033.17358, 0.45899, 0.315633, -0.107349, -1.420891, -0.159793, -2.48912
1515638033.18359, 0.507789, 0.262008, -0.098341, -1.407807, -0.15365, -2.486583
1515638033.1936, 0.521431, 0.242501, -0.062626, -1.397135, -0.147051, -2.481518
1515638033.20361, 0.499019, 0.259581, -0.010586, -1.389483, -0.1398, -2.473792
1515638033.21362, 0.456917, 0.303996, 0.044387, -1.384766, -0.132041, -2.463261
1515638033.22363, 0.41693, 0.35085, 0.094967, -1.38271, -0.123986, -2.450173
1515638033.23364, 0.38467, 0.382659, 0.139996, -1.382896, -0.115861, -2.434959
1515638033.24365, 0.362293, 0.408692, 0.176241, -1.384965, -0.108012, -2.418222
1515638033.25366, 0.344802, 0.434692, 0.201344, -1.388724, -0.100726, -2.400693
1515638033.26367, 0.336246, 0.452226, 0.225882, -1.393932, -0.094255, -2.383179
1515638033.27368, 0.336987, 0.459602, 0.243078, -1.400167, -0.088794, -2.366587
1515638033.28369, 0.343926, 0.457462, 0.245648, -1.407012, -0.084432, -2.351903
1515638033.2937, 0.356535, 0.458789, 0.242538, -1.41394, -0.081049, -2.340002
1515638033.30371, 0.363092, 0.463248, 0.229394, -1.420314, -0.078535, -2.331622
1515638033.31372, 0.365813, 0.474494, 0.209189, -1.425674, -0.07679, -2.327075
1515638033.32373, 0.366316, 0.487299, 0.19244, -1.429624, -0.075746, -2.326236
1515638033.33374, 0.373909, 0.496752, 0.172468, -1.431835, -0.075463, -2.328615
1515638033.34375, 0.391487, 0.496998, 0.153682, -1.432171, -0.076073, -2.333754
1515638033.35375, 0.412534, 0.496537, 0.140697, -1.430669, -0.077684, -2.341264
1515638033.36376, 0.433397, 0.498832, 0.125872, -1.42757, -0.080448, -2.350738
1515638033.37377, 0.455938, 0.495435, 0.112152, -1.423267, -0.084576, -2.361538
1515638033.38378, 0.467829, 0.497181, 0.093246, -1.418406, -0.090283, -2.373019
1515638033.39379, 0.469072, 0.496335, 0.075812, -1.413758, -0.097815, -2.3845
1515638033.4038, 0.454803, 0.494992, 0.056754, -1.410044, -0.107295, -2.395304
1515638033.41381, 0.428714, 0.491912, 0.049222, -1.407882, -0.118688, -2.40458
1515638033.42382, 0.403817, 0.483719, 0.04911, -1.40738, -0.131851, -2.411623
1515638033.43383, 0.386978, 0.466428, 0.051519, -1.408323, -0.146615, -2.41617
1515638033.44384, 0.372036, 0.442137, 0.060574, -1.410358, -0.162907, -2.418741
1515638033.45385, 0.347775, 0.416206, 0.076675, -1.41304, -0.180832, -2.420193
1515638033.46386, 0.320659, 0.388663, 0.089464, -1.415805, -0.200539, -2.421138
1515638033.47387, 0.296828, 0.359191, 0.091488, -1.41835, -0.22202, -2.421896
1515638033.48388, 0.27082, 0.326394, 0.087303, -1.420672, -0.245208, -2.422692
1515638033.49389, 0.232283, 0.297281, 0.08296, -1.422863, -0.269934, -2.423665
1515638033.50387, 0.194687, 0.263743, 0.084984, -1.424758, -0.29582, -2.424813
1515638033.51388, 0.15824, 0.236943, 0.07776, -1.426159, -0.322786, -2.426123
1515638033.52389, 0.119502, 0.218955, 0.067214, -1.42719, -0.350462, -2.427624
1515638033.5339, 0.084167, 0.202998, 0.053367, -1.428079, -0.37855, -2.429404
1515638033.54387, 0.052016, 0.191676, 0.041001, -1.429063, -0.406809, -2.431412
1515638033.55388, 0.009349, 0.191452, 0.032817, -1.430303, -0.435192, -2.433523
1515638033.56389, -0.042955, 0.200204, 0.025762, -1.43174, -0.463764, -2.435668
1515638033.5739, -0.103898, 0.216956, 0.01388, -1.433395, -0.492728, -2.438008
1515638033.58391, -0.168744, 0.235952, 0.003808, -1.43538, -0.522149, -2.440754
1515638033.59392, -0.239415, 0.271011, -0.013647, -1.437965, -0.551973, -2.444394
1515638033.60393, -0.318013, 0.319252, -0.039249, -1.441639, -0.582103, -2.449581
1515638033.61394, -0.397373, 0.360788, -0.075779, -1.446721, -0.612589, -2.456919
1515638033.62395, -0.474752, 0.38381, -0.099256, -1.453041, -0.643578, -2.466388
1515638033.63396, -0.555218, 0.402891, -0.129397, -1.460225, -0.675213, -2.477693
1515638033.64397, -0.624972, 0.415987, -0.171985, -1.468323, -0.707534, -2.49067
1515638033.65398, -0.681394, 0.407283, -0.218845, -1.477506, -0.740376, -2.505159
1515638033.66399, -0.71298, 0.358445, -0.246647, -1.487363, -0.773449, -2.520282
1515638033.674, -0.72171, 0.251166, -0.251938, -1.496416, -0.80657, -2.534355
1515638033.68401, -0.70431, 0.112372, -0.248013, -1.502962, -0.839626, -2.545518
1515638033.69402, -0.676466, -0.017655, -0.244504, -1.506596, -0.872179, -2.552965
1515638033.70403, -0.649721, -0.12745, -0.247, -1.508644, -0.903356, -2.557435
1515638033.71404, -0.642038, -0.208527, -0.243762, -1.511051, -0.932405, -2.560285
1515638033.72405, -0.662827, -0.262046, -0.229446, -1.514717, -0.958881, -2.562006
1515638033.73406, -0.690603, -0.276035, -0.220803, -1.519366, -0.982572, -2.562248
1515638033.74407, -0.723597, -0.282061, -0.21892, -1.524148, -1.003611, -2.560056
1515638033.75407, -0.741976, -0.289603, -0.20706, -1.528117, -1.02224, -2.554668
1515638033.76408, -0.734573, -0.309995, -0.1969, -1.530727, -1.038685, -2.546092
1515638033.77409, -0.702979, -0.346831, -0.188774, -1.532114, -1.052966, -2.535219
1515638033.7841, -0.663431, -0.380793, -0.186476, -1.532929, -1.064984, -2.523376
1515638033.79411, -0.618151, -0.413766, -0.191255, -1.533834, -1.074639, -2.511884
1515638033.80412, -0.567012, -0.440355, -0.191793, -1.534957, -1.081983, -2.501422
1515638033.81413, -0.51418, -0.467288, -0.193011, -1.535808, -1.087242, -2.492021
1515638033.82414, -0.453084, -0.482805, -0.188697, -1.535558, -1.090631, -2.48308
1515638033.83415, -0.389492, -0.494308, -0.185038, -1.533782, -1.092447, -2.474106
1515638033.84416, -0.322285, -0.508102, -0.177457, -1.530454, -1.093078, -2.464565
1515638033.85414, -0.260637, -0.523356, -0.161015, -1.52577, -1.092868, -2.454169
1515638033.86415, -0.21451, -0.544907, -0.142484, -1.519751, -1.092116, -2.442462
1515638033.87416, -0.178894, -0.562202, -0.1281, -1.51267, -1.091173, -2.429033
1515638033.88417, -0.158701, -0.572533, -0.110189, -1.505072, -1.090249, -2.413679
1515638033.89418, -0.154897, -0.585521, -0.099134, -1.497503, -1.089364, -2.396288
1515638033.90419, -0.165854, -0.594381, -0.091275, -1.490649, -1.088365, -2.377214
1515638033.9142, -0.188635, -0.592843, -0.088433, -1.48543, -1.086927, -2.357374
1515638033.92421, -0.218846, -0.58286, -0.100142, -1.483144, -1.084726, -2.338445
1515638033.93422, -0.253728, -0.564864, -0.11832, -1.484693, -1.081522, -2.322002
1515638033.94423, -0.292237, -0.532061, -0.153292, -1.490269, -1.077164, -2.309228
1515638033.95424, -0.323119, -0.485986, -0.201073, -1.499757, -1.071444, -2.300746
1515638033.96425, -0.355313, -0.430732, -0.261524, -1.512827, -1.064348, -2.296754
1515638033.97426, -0.389174, -0.380608, -0.321484, -1.528663, -1.055952, -2.296699
1515638033.98427, -0.41639, -0.330817, -0.360735, -1.546179, -1.04627, -2.299811
1515638033.99428, -0.443894, -0.2763, -0.413932, -1.56438, -1.035318, -2.305169
1515638034.00429, -0.452822, -0.234931, -0.463439, -1.582281, -1.023059, -2.311584
1515638034.0143, -0.457495, -0.206377, -0.507222, -1.59873, -1.009489, -2.317653
1515638034.02431, -0.456819, -0.170596, -0.545803, -1.612815, -0.994671, -2.32204
1515638034.03432, -0.449709, -0.13885, -0.583472, -1.623894, -0.978611, -2.323615
1515638034.04433, -0.43721, -0.1261, -0.600347, -1.631268, -0.961293, -2.321485
1515638034.05434, -0.424077, -0.110844, -0.605772, -1.634639, -0.9427, -2.315313
1515638034.06435, -0.407228, -0.079352, -0.595766, -1.634365, -0.922722, -2.305604
1515638034.07436, -0.392304, -0.043767, -0.574448, -1.631031, -0.901381, -2.293084
1515638034.08437, -0.378491, -0.017636, -0.54728, -1.625341, -0.878866, -2.278519
1515638034.09437, -0.371321, 0.019611, -0.518967, -1.618253, -0.85547, -2.262574
1515638034.10439, -0.36562, 0.049826, -0.491792, -1.610709, -0.831438, -2.245853
1515638034.11439, -0.370116, 0.065514, -0.476084, -1.603262, -0.806832, -2.228366
1515638034.1244, -0.388001, 0.099527, -0.47184, -1.596686, -0.781338, -2.210331
1515638034.13441, -0.405908, 0.172364, -0.475367, -1.592044, -0.754369, -2.192542
1515638034.14442, -0.433733, 0.269968, -0.477173, -1.589909, -0.725614, -2.175962
1515638034.15443, -0.453408, 0.366451, -0.476454, -1.589771, -0.695179, -2.160963
1515638034.16444, -0.453558, 0.435411, -0.47327, -1.590443, -0.66363, -2.147287
1515638034.17445, -0.444182, 0.487798, -0.47314, -1.590853, -0.631709, -2.134249
1515638034.18446, -0.430968, 0.562286, -0.48559, -1.590792, -0.59979, -2.121534
1515638034.19447, -0.420084, 0.630327, -0.485064, -1.590477, -0.568036, -2.109308
1515638034.20448, -0.39456, 0.665899, -0.462199, -1.589809, -0.536858, -2.09791
1515638034.21446, -0.340818, 0.65328, -0.423041, -1.587752, -0.506951, -2.08759
1515638034.22447, -0.327504, 0.677948, -0.418743, -1.582656, -0.478948, -2.077805
1515638034.23448, -0.12735, 0.439612, -0.364068, -1.573709, -0.453438, -2.067733
1515638034.24449, -0.010314, 0.312647, -0.364085, -1.561355, -0.43019, -2.056199
1515638034.2545, 0.066241, 0.215386, -0.364554, -1.547077, -0.408207, -2.042111
1515638034.26451, 0.110107, 0.165404, -0.3608, -1.532809, -0.386209, -2.024654
1515638034.27452, 0.122129, 0.166387, -0.333871, -1.520233, -0.363051, -2.003294
1515638034.28453, 0.096497, 0.215599, -0.290364, -1.510339, -0.337995, -1.97778
1515638034.29454, 0.068893, 0.297354, -0.225935, -1.503256, -0.310742, -1.948554
1515638034.30455, 0.045225, 0.38749, -0.158304, -1.498584, -0.281417, -1.916666
1515638034.31456, 0.053198, 0.461159, -0.096192, -1.495977, -0.250466, -1.883567
1515638034.32457, 0.078577, 0.528626, -0.051942, -1.495325, -0.218501, -1.850628
1515638034.33458, 0.106592, 0.598681, -0.016777, -1.496593, -0.186222, -1.818914
1515638034.34459, 0.126147, 0.665278, 0.01227, -1.499406, -0.154319, -1.789011
1515638034.3546, 0.147827, 0.71294, 0.046651, -1.503008, -0.123556, -1.761517
1515638034.36461, 0.18068, 0.737005, 0.080428, -1.506485, -0.094603, -1.73711
1515638034.37462, 0.224026, 0.748502, 0.091033, -1.509093, -0.067834, -1.716545
1515638034.38463, 0.263778, 0.743599, 0.095522, -1.510337, -0.043264, -1.700166
1515638034.39464, 0.301828, 0.733753, 0.086721, -1.509964, -0.02075, -1.687987
1515638034.40465, 0.333196, 0.72387, 0.061167, -1.508139, -0.000053, -1.679574
1515638034.41466, 0.359719, 0.714199, 0.039084, -1.505041, 0.018964, -1.674209
1515638034.42467, 0.388642, 0.709841, 0.029039, -1.500776, 0.036387, -1.671045
1515638034.43468, 0.416799, 0.701183, 0.024885, -1.495352, 0.052251, -1.66945
1515638034.44469, 0.449897, 0.689458, 0.024341, -1.488747, 0.066643, -1.668932
1515638034.4547, 0.487031, 0.67847, 0.027334, -1.481062, 0.079509, -1.669196
1515638034.46471, 0.528761, 0.66465, 0.031981, -1.47258, 0.090724, -1.669807
1515638034.47472, 0.563501, 0.652121, 0.041612, -1.463779, 0.100133, -1.670287
1515638034.48472, 0.5991, 0.637592, 0.04996, -1.455322, 0.107649, -1.670069
1515638034.49474, 0.627196, 0.623637, 0.055971, -1.448075, 0.113182, -1.668803
1515638034.50475, 0.645183, 0.616694, 0.064906, -1.442924, 0.116577, -1.666138
1515638034.51476, 0.651901, 0.618748, 0.081879, -1.440329, 0.117754, -1.661965
1515638034.52477, 0.648339, 0.622683, 0.102162, -1.440247, 0.116799, -1.656256
1515638034.53478, 0.636134, 0.61683, 0.115828, -1.442452, 0.113779, -1.649221
1515638034.54475, 0.621096, 0.606946, 0.120538, -1.44652, 0.108778, -1.641271
1515638034.55477, 0.59836, 0.599378, 0.127393, -1.451799, 0.101873, -1.632944
1515638034.56474, 0.572195, 0.589444, 0.137403, -1.457363, 0.093165, -1.624863
1515638034.57475, 0.544206, 0.573584, 0.143027, -1.462482, 0.082727, -1.617457
1515638034.58476, 0.51758, 0.556473, 0.147372, -1.466584, 0.070799, -1.611255
1515638034.59477, 0.491005, 0.540998, 0.148735, -1.469281, 0.05757, -1.6067
1515638034.60478, 0.463858, 0.526347, 0.147144, -1.47031, 0.043221, -1.60421
1515638034.61479, 0.443279, 0.520938, 0.143358, -1.469647, 0.027823, -1.604005
1515638034.6248, 0.411475, 0.528052, 0.132755, -1.467514, 0.011405, -1.606158
1515638034.63481, 0.376177, 0.54283, 0.118862, -1.464258, -0.006135, -1.610476
1515638034.64482, 0.33754, 0.564823, 0.108514, -1.460161, -0.024932, -1.616702
1515638034.65483, 0.311159, 0.583915, 0.089631, -1.455601, -0.045175, -1.624409
1515638034.66484, 0.284482, 0.597431, 0.056816, -1.45114, -0.067125, -1.633187
1515638034.67485, 0.252573, 0.616157, 0.026167, -1.447325, -0.091046, -1.642629
1515638034.68486, 0.207755, 0.64069, -0.006236, -1.444488, -0.116993, -1.652519
1515638034.69487, 0.153244, 0.665426, -0.033658, -1.442699, -0.144987, -1.662718
1515638034.70488, 0.09142, 0.70199, -0.062633, -1.441895, -0.175202, -1.673319
1515638034.71489, 0.025518, 0.733881, -0.08997, -1.442025, -0.207859, -1.684405
1515638034.7249, -0.057945, 0.774353, -0.126609, -1.443217, -0.242937, -1.696237
1515638034.73491, -0.141555, 0.811902, -0.169066, -1.445806, -0.280348, -1.709083
1515638034.74492, -0.241119, 0.839485, -0.209588, -1.450093, -0.320065, -1.72312
1515638034.75493, -0.35554, 0.865974, -0.242269, -1.45586, -0.362037, -1.738213
1515638034.76494, -0.476883, 0.870116, -0.254854, -1.462363, -0.40634, -1.753947
1515638034.77495, -0.589176, 0.814039, -0.258631, -1.468255, -0.453124, -1.769253
1515638034.78496, -0.685511, 0.687137, -0.251703, -1.472183, -0.502248, -1.782757
1515638034.79497, -0.737694, 0.510388, -0.23942, -1.473513, -0.552819, -1.793486
1515638034.80498, -0.758511, 0.324003, -0.253684, -1.473041, -0.603456, -1.801536
1515638034.81499, -0.759906, 0.044771, -0.277084, -1.47233, -0.652771, -1.807426
1515638034.825, -0.789048, 0.008244, -0.280213, -1.472657, -0.699606, -1.811641
1515638034.83501, -0.823766, -0.152192, -0.266523, -1.47451, -0.743185, -1.814113
1515638034.84502, -0.850943, -0.180961, -0.271367, -1.477627, -0.782995, -1.814509
1515638034.85503, -0.874056, -0.231106, -0.25275, -1.481466, -0.818802, -1.812458
1515638034.86504, -0.874898, -0.27611, -0.229287, -1.485402, -0.850861, -1.807988
1515638034.87505, -0.80703, -0.337225, -0.189892, -1.48894, -0.879742, -1.801528
1515638034.88506, -0.776868, -0.378586, -0.171318, -1.491723, -0.90601, -1.793642
1515638034.89507, -0.752122, -0.422749, -0.158496, -1.49362, -0.929982, -1.784974
1515638034.90508, -0.732056, -0.463774, -0.15287, -1.494639, -0.951704, -1.776122
1515638034.91509, -0.710548, -0.498508, -0.152414, -1.495049, -0.971014, -1.767878
1515638034.92507, -0.68379, -0.519089, -0.144586, -1.495001, -0.987701, -1.76068
1515638034.93508, -0.65315, -0.534738, -0.141379, -1.494245, -1.001751, -1.754479
1515638034.94508, -0.613315, -0.548235, -0.136275, -1.492463, -1.013111, -1.748961
1515638034.95509, -0.572478, -0.557391, -0.124708, -1.48947, -1.022026, -1.743762
1515638034.9651, -0.526322, -0.566469, -0.113064, -1.485425, -1.028879, -1.738634
1515638034.97511, -0.487354, -0.577876, -0.095989, -1.48066, -1.034095, -1.733495
1515638034.98512, -0.454357, -0.592324, -0.082728, -1.475557, -1.038045, -1.728168
1515638034.99513, -0.434267, -0.600787, -0.069502, -1.470529, -1.041016, -1.722688
1515638035.00514, -0.41888, -0.606217, -0.063523, -1.465948, -1.04322, -1.716988
1515638035.01515, -0.414839, -0.615295, -0.062947, -1.462191, -1.044765, -1.711116
1515638035.02516, -0.416934, -0.623545, -0.075995, -1.459509, -1.045698, -1.70499
1515638035.03517, -0.426143, -0.627789, -0.091976, -1.458044, -1.046038, -1.698562
1515638035.04518, -0.434497, -0.627778, -0.111718, -1.457819, -1.045588, -1.691697
1515638035.05519, -0.446668, -0.618297, -0.135839, -1.458705, -1.044149, -1.684254
1515638035.0652, -0.461703, -0.603517, -0.158291, -1.460502, -1.041676, -1.676209
1515638035.07521, -0.472348, -0.585283, -0.183749, -1.463192, -1.038212, -1.668063
1515638035.08522, -0.480743, -0.565194, -0.216914, -1.466838, -1.033735, -1.660325
1515638035.09523, -0.490291, -0.545665, -0.253559, -1.471391, -1.028306, -1.653234
1515638035.10524, -0.501897, -0.524676, -0.291265, -1.476494, -1.02191, -1.646336
1515638035.11525, -0.510236, -0.499744, -0.319222, -1.481638, -1.01447, -1.638984
1515638035.12526, -0.523727, -0.475807, -0.343204, -1.486461, -1.005783, -1.630708
1515638035.13527, -0.541638, -0.455165, -0.361642, -1.490797, -0.995752, -1.621568
1515638035.14528, -0.554189, -0.434378, -0.380555, -1.494591, -0.984148, -1.611805
1515638035.15529, -0.564295, -0.400272, -0.394823, -1.497987, -0.970797, -1.601904
1515638035.1653, -0.577775, -0.352625, -0.410395, -1.5011, -0.955493, -1.592172
1515638035.17531, -0.580789, -0.302878, -0.430732, -1.504052, -0.938122, -1.582809
1515638035.18532, -0.58125, -0.24453, -0.449776, -1.506919, -0.918766, -1.573725
1515638035.19533, -0.572208, -0.184166, -0.468488, -1.509697, -0.897559, -1.564609
1515638035.20534, -0.563894, -0.125095, -0.490513, -1.512139, -0.874631, -1.554997
1515638035.21535, -0.556417, -0.056649, -0.507714, -1.514135, -0.849991, -1.544512
1515638035.22536, -0.540927, 0.022067, -0.515478, -1.515887, -0.823461, -1.53327
1515638035.23537, -0.518244, 0.090924, -0.512067, -1.51752, -0.794879, -1.521562
1515638035.24538, -0.492601, 0.158694, -0.49956, -1.518854, -0.764444, -1.509753
1515638035.25539, -0.478938, 0.24134, -0.491296, -1.519397, -0.732492, -1.497867
1515638035.2654, -0.48222, 0.355017, -0.495842, -1.519263, -0.699285, -1.486037
1515638035.27541, -0.481039, 0.47008, -0.483528, -1.519031, -0.664966, -1.474445
1515638035.28539, -0.460119, 0.497802, -0.48205, -1.518544, -0.630205, -1.463054
1515638035.2954, -0.454931, 0.581683, -0.422213, -1.516855, -0.595651, -1.451165
1515638035.30541, -0.436688, 0.609878, -0.418428, -1.513551, -0.561968, -1.438524
1515638035.31541, -0.413676, 0.692114, -0.399812, -1.509588, -0.528991, -1.425641
1515638035.32542, -0.38146, 0.730644, -0.389304, -1.506343, -0.49642, -1.413476
1515638035.33543, -0.341684, 0.740461, -0.365911, -1.503937, -0.464425, -1.40228
1515638035.34544, -0.274129, 0.704199, -0.340172, -1.501373, -0.433538, -1.391557
1515638035.35545, -0.177414, 0.618398, -0.314966, -1.497416, -0.404307, -1.380425
1515638035.36546, -0.075593, 0.523627, -0.301473, -1.491604, -0.376862, -1.368054
1515638035.37547, 0.014456, 0.456224, -0.299064, -1.484603, -0.350614, -1.354075
1515638035.38548, 0.091899, 0.399317, -0.286181, -1.477602, -0.324809, -1.338485
1515638035.39549, 0.137511, 0.367744, -0.262097, -1.471462, -0.298823, -1.32127
1515638035.4055, 0.15954, 0.369398, -0.24232, -1.466579, -0.27237, -1.302406
1515638035.41551, 0.172252, 0.395545, -0.214128, -1.463279, -0.245446, -1.281872
1515638035.42552, 0.18461, 0.425196, -0.183007, -1.461762, -0.218162, -1.259668
1515638035.43553, 0.201315, 0.456777, -0.15015, -1.462081, -0.190755, -1.235811
1515638035.44554, 0.224987, 0.489261, -0.124355, -1.464208, -0.163428, -1.210605
1515638035.45555, 0.254082, 0.518408, -0.10585, -1.468178, -0.136418, -1.184591
1515638035.46556, 0.26876, 0.545669, -0.098462, -1.474112, -0.110024, -1.158396
1515638035.47557, 0.27568, 0.576392, -0.085384, -1.48178, -0.084612, -1.132518
1515638035.48558, 0.286327, 0.603995, -0.078109, -1.490715, -0.060425, -1.107361
1515638035.49559, 0.30015, 0.622832, -0.075042, -1.500313, -0.037776, -1.0834
1515638035.5056, 0.322274, 0.629245, -0.074032, -1.509986, -0.016874, -1.061206
1515638035.51561, 0.342982, 0.626055, -0.08524, -1.519218, 0.002184, -1.041229
1515638035.52562, 0.351924, 0.624855, -0.102265, -1.527684, 0.019479, -1.023663
1515638035.53563, 0.35454, 0.62305, -0.117032, -1.535227, 0.035121, -1.008427
1515638035.5456, 0.352654, 0.623868, -0.126385, -1.541625, 0.049288, -0.995189
1515638035.55561, 0.359075, 0.615617, -0.133046, -1.546551, 0.062114, -0.983642
1515638035.56562, 0.371697, 0.607837, -0.137948, -1.549734, 0.073709, -0.973588
1515638035.57563, 0.394412, 0.593419, -0.142971, -1.551206, 0.084211, -0.964919
1515638035.58564, 0.417798, 0.583356, -0.148606, -1.551209, 0.093731, -0.957479
1515638035.59565, 0.449116, 0.57101, -0.156779, -1.550097, 0.102317, -0.951101
1515638035.60566, 0.479317, 0.562832, -0.162374, -1.548249, 0.109836, -0.945521
1515638035.61567, 0.502441, 0.565678, -0.16648, -1.545975, 0.116201, -0.940506
1515638035.62568, 0.525484, 0.562823, -0.163514, -1.543402, 0.121287, -0.935695
1515638035.63569, 0.542157, 0.56366, -0.164397, -1.540633, 0.124912, -0.930699
1515638035.64567, 0.551719, 0.56762, -0.161845, -1.537866, 0.126936, -0.925078
1515638035.65568, 0.55997, 0.563526, -0.15053, -1.535256, 0.127239, -0.91844
1515638035.66568, 0.567076, 0.555377, -0.132595, -1.53281, 0.125715, -0.910511
1515638035.67569, 0.567052, 0.556356, -0.10505, -1.530515, 0.12235, -0.90128
1515638035.6857, 0.557881, 0.545318, -0.08012, -1.528466, 0.117304, -0.890922
1515638035.69571, 0.555516, 0.534778, -0.051414, -1.526712, 0.110734, -0.879695
1515638035.70572, 0.550738, 0.531106, -0.024389, -1.52535, 0.102728, -0.867762
1515638035.71573, 0.542578, 0.531184, 0.002214, -1.524495, 0.093408, -0.855329
1515638035.72574, 0.527653, 0.5297, 0.030252, -1.524132, 0.082819, -0.842502
1515638035.73575, 0.500011, 0.538012, 0.057721, -1.52408, 0.070969, -0.829425
1515638035.74576, 0.469575, 0.548226, 0.081383, -1.524109, 0.057841, -0.816262
1515638035.75577, 0.438697, 0.558987, 0.103648, -1.524003, 0.043467, -0.803283
1515638035.76578, 0.402477, 0.571134, 0.12383, -1.52359, 0.027788, -0.79083
1515638035.77579, 0.363018, 0.587327, 0.145688, -1.522789, 0.010667, -0.779295
1515638035.7858, 0.3082, 0.608131, 0.16325, -1.521478, -0.007973, -0.769079
1515638035.79581, 0.262907, 0.622316, 0.177858, -1.519451, -0.028063, -0.760634
1515638035.80582, 0.220568, 0.63942, 0.182571, -1.51652, -0.04955, -0.754314
1515638035.81583, 0.175856, 0.656744, 0.172792, -1.512733, -0.07246, -0.750498
1515638035.82584, 0.13223, 0.660407, 0.164225, -1.508166, -0.09687, -0.749432
1515638035.83585, 0.085517, 0.660899, 0.150248, -1.502901, -0.122949, -0.751117
1515638035.84586, 0.037021, 0.661199, 0.131031, -1.496969, -0.15065, -0.755441
1515638035.85587, -0.007631, 0.657599, 0.109221, -1.490033, -0.179841, -0.762251
1515638035.86588, -0.050427, 0.65696, 0.078156, -1.481961, -0.210387, -0.771358
1515638035.87589, -0.09103, 0.670423, 0.038938, -1.473131, -0.242249, -0.782725
1515638035.8859, -0.141189, 0.689071, 0.003191, -1.464277, -0.275395, -0.79638
1515638035.89591, -0.200111, 0.70284, -0.026103, -1.455966, -0.309877, -0.811932
1515638035.90592, -0.261648, 0.710578, -0.050889, -1.448411, -0.345835, -0.828606
1515638035.91593, -0.324103, 0.691255, -0.068259, -1.441466, -0.383392, -0.845222
1515638035.92594, -0.374315, 0.633454, -0.073702, -1.434854, -0.422457, -0.86055
1515638035.93595, -0.414112, 0.542572, -0.071728, -1.428451, -0.462563, -0.873594
1515638035.94596, -0.434566, 0.433508, -0.066015, -1.422192, -0.502924, -0.883826
1515638035.95597, -0.442613, 0.323385, -0.05876, -1.416148, -0.542728, -0.891182
1515638035.96598, -0.447538, 0.221763, -0.046417, -1.410609, -0.581337, -0.896146
1515638035.97599, -0.45188, 0.141157, -0.028668, -1.405876, -0.618322, -0.899398
1515638035.986, -0.44448, 0.079199, -0.009826, -1.40218, -0.653514, -0.901663
1515638035.99601, -0.433618, 0.031962, 0.016357, -1.39965, -0.686941, -0.903564
1515638036.00599, -0.435775, -0.002045, 0.031146, -1.398325, -0.718713, -0.905569
1515638036.016, -0.45024, -0.008826, 0.037017, -1.398584, -0.749241, -0.908132
1515638036.02601, -0.478736, -0.005675, 0.027378, -1.401096, -0.778494, -0.911801
1515638036.03602, -0.521992, 0.010264, 0.012583, -1.406471, -0.806696, -0.916923
1515638036.04603, -0.585046, 0.033372, -0.013601, -1.414751, -0.834258, -0.923358
1515638036.05604, -0.642511, 0.047349, -0.043097, -1.425372, -0.861615, -0.930317
1515638036.06605, -0.698944, 0.045198, -0.074784, -1.437526, -0.888976, -0.936972
1515638036.07606, -0.745129, 0.014126, -0.103047, -1.450402, -0.916448, -0.94266
1515638036.08607, -0.781679, -0.038844, -0.124613, -1.463375, -0.943827, -0.947214
1515638036.09608, -0.814149, -0.107617, -0.145271, -1.476303, -0.970785, -0.951045
1515638036.10609, -0.842681, -0.193927, -0.157012, -1.489351, -0.997028, -0.955062
1515638036.11609, -0.86119, -0.282238, -0.161835, -1.502423, -1.02219, -0.959924
1515638036.1261, -0.869377, -0.377638, -0.172382, -1.515373, -1.045735, -0.966127
1515638036.13611, -0.860462, -0.478687, -0.187016, -1.528042, -1.06721, -0.973729
1515638036.14612, -0.841077, -0.56516, -0.205634, -1.540709, -1.086132, -0.982791
1515638036.15613, -0.810639, -0.637083, -0.216495, -1.553714, -1.102013, -0.993174
1515638036.16614, -0.77411, -0.691359, -0.232349, -1.56689, -1.114529, -1.004336
1515638036.17615, -0.731948, -0.724703, -0.248118, -1.579533, -1.123451, -1.015066
1515638036.18616, -0.681594, -0.739386, -0.264389, -1.590881, -1.128817, -1.024062
1515638036.19617, -0.630748, -0.736389, -0.275801, -1.600219, -1.130982, -1.030122
1515638036.20618, -0.585186, -0.715626, -0.281254, -1.607112, -1.130454, -1.032517
1515638036.21619, -0.547431, -0.696709, -0.278088, -1.611275, -1.127823, -1.030875
1515638036.2262, -0.508277, -0.671511, -0.269465, -1.612899, -1.123662, -1.025477
1515638036.23621, -0.467887, -0.648219, -0.263704, -1.612381, -1.118347, -1.016689
1515638036.24622, -0.433521, -0.628882, -0.266085, -1.610178, -1.112232, -1.004662
1515638036.25623, -0.414604, -0.601604, -0.273752, -1.606642, -1.105599, -0.989566
1515638036.26624, -0.409682, -0.576125, -0.272794, -1.602055, -1.098513, -0.971774
1515638036.27625, -0.413914, -0.546278, -0.263072, -1.596801, -1.090955, -0.952299
1515638036.28626, -0.43367, -0.520027, -0.264011, -1.591536, -1.082807, -0.932517
1515638036.29627, -0.450089, -0.501726, -0.262434, -1.586768, -1.073953, -0.91356
1515638036.30628, -0.453662, -0.488832, -0.269081, -1.582796, -1.064273, -0.896015
1515638036.31629, -0.451514, -0.476953, -0.285504, -1.579989, -1.053758, -0.880079
1515638036.3263, -0.444926, -0.465724, -0.310578, -1.578336, -1.042482, -0.865176
1515638036.33631, -0.446899, -0.457202, -0.342536, -1.577247, -1.030542, -0.850104
1515638036.34632, -0.457892, -0.433838, -0.358527, -1.575953, -1.017998, -0.833587
1515638036.35633, -0.477852, -0.407558, -0.379098, -1.574084, -1.004736, -0.815069
1515638036.36631, -0.501048, -0.368941, -0.392654, -1.57202, -0.990449, -0.795072
1515638036.37632, -0.528417, -0.312791, -0.404976, -1.570565, -0.974614, -0.774678
1515638036.38633, -0.560912, -0.248707, -0.41059, -1.570144, -0.957019, -0.754972
1515638036.39634, -0.593127, -0.180782, -0.418007, -1.570474, -0.937664, -0.736425
1515638036.40635, -0.609866, -0.121175, -0.425318, -1.570964, -0.916701, -0.718978
1515638036.41636, -0.610302, -0.067341, -0.435526, -1.571275, -0.894232, -0.702485
1515638036.42637, -0.601966, -0.01164, -0.447397, -1.57145, -0.870255, -0.686781
1515638036.43637, -0.59312, 0.058387, -0.462108, -1.571779, -0.844735, -0.671923
1515638036.44638, -0.597492, 0.159347, -0.485098, -1.57288, -0.817602, -0.658132
1515638036.45639, -0.600527, 0.267059, -0.516707, -1.575104, -0.788988, -0.645311
1515638036.4664, -0.592305, 0.368709, -0.540333, -1.578144, -0.759267, -0.63277
1515638036.47641, -0.572404, 0.454647, -0.554342, -1.581259, -0.729064, -0.619558
1515638036.48642, -0.538569, 0.520259, -0.560239, -1.58381, -0.69896, -0.604885
1515638036.49643, -0.495795, 0.561254, -0.560307, -1.585492, -0.669371, -0.588403
1515638036.50644, -0.440821, 0.579086, -0.546464, -1.586213, -0.640499, -0.570229
1515638036.51645, -0.371553, 0.556735, -0.526321, -1.585753, -0.612542, -0.550631
1515638036.52646, -0.282029, 0.486456, -0.498279, -1.583747, -0.585708, -0.529717
1515638036.53647, -0.182506, 0.399545, -0.475482, -1.580182, -0.559885, -0.507482
1515638036.54644, -0.10462, 0.32401, -0.456377, -1.575746, -0.534588, -0.484059
1515638036.55645, -0.03795, 0.258934, -0.439584, -1.571174, -0.509289, -0.459452
1515638036.56646, 0.017177, 0.210862, -0.416905, -1.567096, -0.483491, -0.433617
1515638036.57647, 0.059973, 0.204861, -0.396034, -1.564344, -0.456761, -0.406739
1515638036.58648, 0.084434, 0.236981, -0.376943, -1.563705, -0.428828, -0.378969
1515638036.59649, 0.102928, 0.305919, -0.357097, -1.565607, -0.399741, -0.350483
1515638036.6065, 0.128041, 0.385073, -0.339899, -1.569874, -0.369903, -0.321595
1515638036.61651, 0.165894, 0.450932, -0.321991, -1.575862, -0.339843, -0.292843
1515638036.62652, 0.201518, 0.497002, -0.31248, -1.582889, -0.310195, -0.264892
1515638036.63653, 0.227412, 0.532879, -0.315688, -1.590573, -0.281635, -0.238351
1515638036.64654, 0.257864, 0.567294, -0.307884, -1.598385, -0.254711, -0.213666
1515638036.65655, 0.276022, 0.586473, -0.301223, -1.60556, -0.229752, -0.190957
1515638036.66656, 0.293953, 0.5863, -0.293565, -1.611364, -0.207124, -0.170114
1515638036.67657, 0.305475, 0.574857, -0.293335, -1.615553, -0.187112, -0.150845
1515638036.68658, 0.303116, 0.558968, -0.295809, -1.618359, -0.169658, -0.13272
1515638036.69659, 0.297012, 0.536852, -0.283143, -1.62008, -0.154574, -0.115206
1515638036.7066, 0.293353, 0.505031, -0.251716, -1.620839, -0.141559, -0.097973
1515638036.71661, 0.303922, 0.469184, -0.217064, -1.620731, -0.130136, -0.080896
1515638036.72659, 0.328238, 0.433985, -0.181874, -1.619925, -0.119845, -0.064086
1515638036.7366, 0.350255, 0.401627, -0.161424, -1.618714, -0.110254, -0.047558
1515638036.74661, 0.383399, 0.379124, -0.134549, -1.617358, -0.101136, -0.03158
1515638036.75662, 0.412106, 0.366873, -0.109518, -1.615962, -0.092411, -0.016399
1515638036.76663, 0.446584, 0.356879, -0.078418, -1.61447, -0.084061, -0.002394
1515638036.77664, 0.447294, 0.364831, -0.076749, -1.612767, -0.076084, 0.010045
1515638036.78665, 0.500291, 0.368892, -0.050069, -1.610884, -0.068646, 0.020645
1515638036.79666, 0.514546, 0.388922, -0.0525, -1.608837, -0.062107, 0.029542
1515638036.80667, 0.524564, 0.416015, -0.057477, -1.606778, -0.05684, 0.037236
1515638036.81668, 0.53121, 0.441475, -0.06887, -1.605038, -0.053056, 0.044392
1515638036.82669, 0.527013, 0.462453, -0.08509, -1.603948, -0.050844, 0.051715
1515638036.8367, 0.522997, 0.475156, -0.090706, -1.603734, -0.050149, 0.059721
1515638036.84671, 0.509574, 0.492853, -0.087732, -1.604424, -0.050809, 0.0686
1515638036.85672, 0.494104, 0.505046, -0.076138, -1.605745, -0.052534, 0.078387
1515638036.86673, 0.495903, 0.512944, -0.050702, -1.607203, -0.055016, 0.088936
1515638036.87674, 0.507594, 0.533571, -0.020359, -1.60844, -0.058197, 0.099828
1515638036.88674, 0.512944, 0.553233, 0.003201, -1.609291, -0.062331, 0.11047
1515638036.89676, 0.509856, 0.579018, 0.042302, -1.609419, -0.067976, 0.120251
1515638036.90677, 0.486583, 0.621129, 0.052671, -1.608331, -0.076226, 0.12925
1515638036.91678, 0.456592, 0.640358, 0.055987, -1.605403, -0.087674, 0.137724
1515638036.92678, 0.405407, 0.626334, 0.061504, -1.600701, -0.102514, 0.145828
1515638036.93679, 0.368131, 0.586074, 0.055809, -1.595337, -0.120162, 0.15395
1515638036.9468, 0.324997, 0.534496, 0.064285, -1.590798, -0.139325, 0.162231
1515638036.95681, 0.275217, 0.472043, 0.066386, -1.587848, -0.158935, 0.170538
1515638036.96682, 0.222644, 0.430076, 0.036681, -1.587093, -0.178149, 0.178596
1515638036.97683, 0.174355, 0.395581, 0.010641, -1.588545, -0.196984, 0.185697
1515638036.98684, 0.123506, 0.373107, 0.001956, -1.59143, -0.215673, 0.190684
1515638036.99685, 0.098224, 0.342085, 0.014803, -1.593951, -0.234302, 0.193142
1515638037.00686, 0.089613, 0.308897, 0.026621, -1.594713, -0.252981, 0.192848
1515638037.01687, 0.100069, 0.274614, 0.026353, -1.592608, -0.271573, 0.190097
1515638037.02688, 0.111295, 0.242677, 0.016581, -1.587825, -0.290028, 0.185722
1515638037.03689, 0.097116, 0.217724, 0.016904, -1.581832, -0.307981, 0.180439
1515638037.0469, 0.043658, 0.223507, 0.018977, -1.576535, -0.325146, 0.174614
1515638037.05691, -0.023866, 0.290342, 0.030929, -1.573324, -0.341744, 0.168219
1515638037.06692, -0.12284, 0.395295, 0.030108, -1.572277, -0.358147, 0.160932
1515638037.07693, -0.204606, 0.493403, 0.00417, -1.573613, -0.375481, 0.151906
1515638037.08691, -0.304767, 0.607915, -0.041636, -1.577402, -0.394222, 0.140601
1515638037.09692, -0.389079, 0.672385, -0.121782, -1.58339, -0.415302, 0.127334
1515638037.10693, -0.427687, 0.669179, -0.151634, -1.590378, -0.439078, 0.112764
1515638037.11694, -0.432784, 0.610951, -0.191931, -1.596552, -0.465169, 0.097504
1515638037.12695, -0.408785, 0.478392, -0.221281, -1.600189, -0.492772, 0.081376
1515638037.13696, -0.323756, 0.299644, -0.296331, -1.602018, -0.521055, 0.063553
1515638037.14697, -0.226059, 0.156518, -0.338057, -1.603042, -0.548509, 0.043354
1515638037.15698, -0.152137, 0.045514, -0.400811, -1.604179, -0.574244, 0.021551
1515638037.16699, -0.092299, -0.0242, -0.384686, -1.605487, -0.598661, -0.001255
1515638037.177, -0.078298, -0.053777, -0.379346, -1.606487, -0.622563, -0.02404
1515638037.18701, -0.084429, -0.071342, -0.400515, -1.606383, -0.646516, -0.043597
1515638037.19702, -0.08261, -0.111718, -0.376959, -1.60438, -0.671045, -0.057957
1515638037.20703, -0.104517, -0.147696, -0.334787, -1.600322, -0.696116, -0.067042
1515638037.21704, -0.133674, -0.180602, -0.281213, -1.594566, -0.721431, -0.071124
1515638037.22705, -0.165443, -0.207848, -0.264924, -1.588053, -0.74662, -0.070473
1515638037.23706, -0.205241, -0.229869, -0.241679, -1.581494, -0.771313, -0.06535
1515638037.24707, -0.253353, -0.232464, -0.215803, -1.575196, -0.795174, -0.056684
1515638037.25708, -0.31331, -0.220791, -0.185473, -1.568926, -0.817954, -0.045502
1515638037.26709, -0.365078, -0.213301, -0.157757, -1.562155, -0.839405, -0.033072
1515638037.2771, -0.409373, -0.212893, -0.142967, -1.554707, -0.85928, -0.020762
1515638037.28711, -0.438553, -0.22383, -0.118985, -1.546749, -0.877389, -0.010009
1515638037.29712, -0.459806, -0.241539, -0.114998, -1.53902, -0.893751, -0.002311
1515638037.30713, -0.471581, -0.250746, -0.111099, -1.532072, -0.908584, 0.00173
1515638037.31714, -0.479259, -0.255161, -0.117308, -1.525838, -0.922237, 0.002647
1515638037.32715, -0.4695, -0.258696, -0.139633, -1.520566, -0.934992, 0.001737
1515638037.33715, -0.44063, -0.284208, -0.184113, -1.516161, -0.947169, 0.001826
1515638037.34716, -0.365977, -0.328368, -0.264465, -1.511598, -0.958974, 0.006128
1515638037.35717, -0.359111, -0.347568, -0.253988, -1.505888, -0.970391, 0.015713
1515638037.36718, -0.390658, -0.364991, -0.198576, -1.498321, -0.981332, 0.029256
1515638037.37719, -0.416149, -0.384658, -0.161654, -1.488662, -0.991619, 0.04475
1515638037.3872, -0.431119, -0.395628, -0.094187, -1.47709, -1.000741, 0.061406
1515638037.39721, -0.411468, -0.434819, -0.059393, -1.464295, -1.008576, 0.077832
1515638037.40722, -0.418006, -0.438425, -0.052937, -1.450802, -1.015377, 0.093801
1515638037.41723, -0.367873, -0.460759, -0.115094, -1.437375, -1.021271, 0.110527
1515638037.42724, -0.36016, -0.465979, -0.058837, -1.423685, -1.026291, 0.130245
1515638037.43725, -0.366568, -0.478048, -0.039892, -1.409596, -1.030398, 0.152644
1515638037.44723, -0.391283, -0.477895, -0.011486, -1.396011, -1.033668, 0.176148
1515638037.45724, -0.404824, -0.481966, 0.01586, -1.383516, -1.036143, 0.199722
1515638037.46725, -0.428338, -0.480507, 0.056344, -1.372463, -1.037233, 0.222453
1515638037.47726, -0.454904, -0.478953, 0.066165, -1.363407, -1.036549, 0.242694
1515638037.48727, -0.447583, -0.47173, 0.077461, -1.357643, -1.034353, 0.257715
