time, accel x, accel y, accel z, gyro x, gyro y, gyro z
1515664080505,-0.46180725,2.5076752,6.742981,0.0,0.0,0.0
1515664080527,0.08135986,2.490921,7.7934265,0.0,0.0,0.0
1515664080553,0.4857483,1.5601196,7.7455597,0.0,0.0,0.0
1515664080578,2.0817566,3.1011047,7.9465637,-0.4292755,-0.5682831,-0.021377563
1515664080599,0.8446655,0.6795654,9.317657,-2.5318604,-0.3215027,0.32435608
1515664080620,1.9142609,1.4452667,10.980667,-2.7639923,0.51660156,0.27304077
1515664080641,1.0145569,1.6175537,11.3563385,-2.3779297,0.38220215,-0.08001709
1515664080662,0.6197357,0.090927124,9.265015,-1.7597351,-0.927475,-0.1349945
1515664080683,2.8594208,0.727417,9.253052,-0.9546051,-2.766159,-0.18508911
1515664080704,1.4021912,0.3900299,9.150162,-1.262497,-3.9891205,0.16796875
1515664080725,1.9525452,0.6963043,11.952148,-1.7902832,-3.789978,0.95599365
1515664080746,4.6540375,-0.41874695,15.134598,-1.4286346,-2.5462646,1.5998383
1515664080767,6.0346985,-1.4931183,12.466614,-0.47937012,-0.7967377,1.5314178
1515664080788,5.2570343,-0.6460571,8.863022,0.025177002,-0.32270813,0.58947754
1515664080810,4.864609,0.5790558,7.9657135,0.32328796,-0.7173462,-0.72753906
1515664080833,3.3882294,-0.4785614,7.594818,0.4931183,-1.0032196,-1.0415039
1515664080855,3.9026947,-1.0169525,9.2482605,0.7679901,-1.7533569,-0.6737671
1515664080878,4.5224304,-1.0959167,9.403793,0.5896301,-0.89082336,-0.31581116
1515664080901,4.0079803,0.21774292,8.281555,0.08383179,0.2050476,-0.2119751
1515664080922,4.146759,-0.5359955,8.298309,-0.02734375,-0.06980896,-0.056793213
1515664080944,4.2879333,-0.01675415,8.204987,0.12902832,-0.19442749,0.02748108
1515664080966,5.0847473,0.27278137,7.862808,-0.0957489,-0.6208191,-0.22050476
1515664080988,4.864609,-0.37327576,10.17189,0.05206299,-0.88594055,-0.33169556
1515664081009,3.8452606,-0.3517456,8.673981,0.27075195,-0.79429626,-0.18997192
1515664081031,4.8957214,-0.5479584,10.66481,0.26586914,-0.46444702,-0.03237915
1515664081053,4.2257233,-0.25125122,8.355743,0.4002533,-0.18832397,0.0995636
1515664081075,5.166107,0.105285645,7.927429,0.20233154,-0.35447693,0.15696716
1515664081097,5.5752716,0.5240326,7.520645,-0.21914673,-0.48277283,0.06291199
1515664081119,5.4915314,-0.04307556,11.047668,-0.10307312,-0.38746643,0.05558777
1515664081141,5.1756744,0.22970581,9.631119,0.06794739,0.2527008,0.20585632
1515664081163,6.419937,1.4045868,7.188034,-0.20082092,0.597229,0.1643219
1515664081185,5.4556427,0.447464,6.2309113,-0.26190186,-0.09547424,-0.1166687
1515664081207,6.357727,0.41874695,6.06102,0.026412964,-1.6556091,-0.25350952
1515664081230,5.7714844,0.6388855,7.755142,-0.041992188,-1.875534,-0.41477966
1515664081252,5.4053802,-1.0528412,8.078171,0.11437988,-1.7594757,-0.3622284
1515664081275,5.4676056,-0.36849976,5.522629,0.43569946,-1.494339,-0.1960907
1515664081297,4.187439,-1.2442627,5.271393,0.2536621,-1.6165161,-0.28648376
1515664081319,3.6753693,-4.067795,9.461227,0.8706207,-1.836441,-0.1325531
1515664081341,5.264206,-3.8763733,10.8059845,2.5333862,-1.2952118,-0.4477539
1515664081362,2.6871338,-3.9050903,2.950348,3.597519,-0.023391724,-0.66400146
1515664081385,-0.090927124,1.414154,-6.3218384,1.5230255,0.2160492,1.2418671
1515664081406,0.8446655,0.49531555,8.384445,-0.3975067,-0.6513672,3.6950989
1515664081427,2.3018951,-5.967697,8.597412,0.54319763,-0.8627167,5.085434
1515664081448,7.5684967,-3.0029907,6.8769684,1.5596771,-0.6513672,5.346863
1515664081470,10.80838,-1.907074,1.902298,0.8144226,-0.8773804,4.017624
1515664081492,6.731003,-3.1298065,4.7066803,0.104599,-1.1131744,3.5277252
1515664081514,7.377075,-5.149353,7.470398,0.5322113,-1.0081024,3.5374908
1515664081535,7.1641083,-5.079956,2.4765778,0.58473206,-0.6990204,3.4873962
1515664081557,7.2933197,-7.487137,1.9836426,0.27807617,-0.92259216,3.4910736
1515664081579,6.8362885,-8.824738,-2.720642,0.31472778,-2.092987,4.01886
1515664081600,8.626129,-8.195419,-0.9834442,0.1204834,-3.6164856,4.6504974
1515664081621,22.463821,-5.8289185,2.292328,-2.0346222,-2.2310638,5.0341034
1515664081642,18.281158,-5.2378845,5.9557343,-1.9552002,-1.5811005,3.3322449
1515664081664,16.469803,-6.541977,8.848663,-1.3565674,-1.3807373,2.0042267
1515664081687,13.835297,-6.5371857,6.2404785,-1.1207733,-0.37402344,1.5924988
1515664081709,15.950562,-3.5724792,7.841278,-1.8758087,1.318039,1.251648
1515664081731,18.08496,-1.7395782,11.509476,-1.9112244,3.9948425,-0.114227295
1515664081754,13.588837,-7.319641,7.771881,-1.5679321,7.0589294,-1.2504272
1515664081778,7.4775696,-11.064407,4.7521515,-1.7279816,8.906189,-0.8607025
1515664081801,8.317459,-7.171295,4.6325073,-1.3394623,9.590347,0.19361877
1515664081824,13.129425,-1.5218353,4.019943,-0.6870575,9.155411,-0.3964386
1515664081853,13.808975,-0.22732544,0.72024536,0.28051758,7.8139496,-2.584549
1515664081874,11.050049,-4.101303,-3.3092804,0.058181763,6.842682,-3.961441
1515664081895,11.050049,-4.101303,-3.3092804,0.058181763,6.842682,-3.961441
1515664081917,11.050049,-4.101303,-3.3092804,0.058181763,6.842682,-3.961441
1515664081938,5.1637115,-6.9583282,-0.31825256,-1.7194214,6.8585663,-5.0170135
1515664081963,7.176071,-5.95813,-3.0604248,-1.9271088,6.134079,-6.1263275
1515664081984,4.3046875,-11.344376,-7.211975,-2.154358,5.4474792,-6.9974213
1515664082005,0.14596558,-16.596619,-8.200211,-2.9448242,3.4548492,-7.218567
1515664082028,-3.9266205,-19.941788,-6.18544,-2.8764038,-0.11746216,-6.3108063
1515664082050,-5.9198456,-18.226135,-0.9714813,-1.8403625,-3.802185,-5.4055176
1515664082071,-3.3260193,-18.888947,3.6227264,1.0673218,-8.670761,-4.1789093
1515664082092,-2.2827454,-18.228516,6.65683,3.9053955,-11.816711,-2.9229736
1515664082113,2.8259277,-15.421738,7.8795624,8.996307,-16.051208,-1.243103
1515664082134,5.4317017,-13.667801,8.642868,12.288864,-16.433609,-0.2461853
1515664082155,8.630905,-11.976074,5.9078827,13.962631,-14.658447,0.009140015
1515664082176,11.042877,-13.057632,3.6275177,14.128784,-11.97554,-0.7397461
1515664082198,9.808182,-13.485947,-0.5934143,13.075653,-8.66832,-1.1087036
1515664082220,10.956741,-10.597809,-8.099701,10.1203,-4.1858063,-0.7837219
1515664082242,11.145767,-4.6588287,-17.233109,3.4618988,0.6302185,-0.5027313
1515664082263,8.731415,-4.536789,-13.476379,-0.7811279,3.6808624,-0.7984009
1515664082285,10.236496,-6.317047,-4.261612,-1.9772034,3.3253326,-1.334732
1515664082306,9.408585,-9.748352,-0.9308014,-0.75671387,2.4017181,-1.626709
1515664082328,5.8863373,-7.972885,-3.1872406,-0.21302795,1.6637878,-0.67744446
1515664082350,10.559525,-6.070587,-0.8949127,0.34405518,0.18551636,-0.43554688
1515664082371,11.612366,-6.45105,0.65802,1.0929718,-0.8126221,-0.86924744
1515664082394,7.9489594,-7.3938293,3.6634064,1.5059204,-1.0398712,-0.64811707
1515664082423,10.25325,-4.9818573,2.1248322,1.6977234,-0.74176025,0.017700195
1515664082445,8.6931305,-5.54895,1.414154,1.9848328,-1.416153,0.004257202
1515664082466,8.6931305,-5.54895,1.414154,1.9848328,-1.416153,0.004257202
1515664082486,11.432907,-2.2324982,1.5003052,2.119217,-1.25,-0.5222931
1515664082508,9.5282135,-1.9812622,2.1870422,1.232254,-0.81752014,-0.63591003
1515664082529,10.248459,-1.3136597,1.7850494,1.1565094,-0.85539246,-0.93522644
1515664082551,9.7986145,0.033493042,2.2660065,1.1076355,-1.144928,-1.0769501
1515664082573,8.257629,-0.279953,2.4335022,1.3141022,-1.212143,-1.2614288
1515664082595,3.550949,-1.8544312,-2.5100708,0.9146118,-1.2744446,-0.98776245
1515664082617,4.072586,-0.6460571,-0.0382843,0.6397095,-1.4088287,-0.5845947
1515664082638,9.279373,0.24885559,-1.6941223,0.48088074,-1.0203094,-0.67744446
1515664082660,3.390625,-2.9862366,3.7136536,0.5346527,-1.6055298,-0.44898987
1515664082681,4.93161,-2.8307037,6.34816,1.2530212,-0.72831726,0.01159668
1515664082702,5.577667,-7.2143555,-0.34217834,1.1100769,0.09265137,0.4611969
1515664082723,3.2853394,-4.2113647,-1.9333954,0.5041046,0.21237183,0.80693054
1515664082744,5.81456,-2.794815,0.4785614,0.4503479,-0.49253845,1.0781555
1515664082766,10.6336975,-4.6205444,2.4669952,0.8180847,-1.5041351,0.81427
1515664082787,12.827927,-6.089737,1.351944,0.4857788,-1.0679626,0.44895935
1515664082808,13.775482,-5.3359985,-0.15074158,-0.13850403,-0.38990784,0.6236725
1515664082829,14.510071,-5.190033,-0.9499512,-0.35108948,-0.3288269,0.58457947
1515664082850,11.887543,-5.350357,0.22492981,0.0410614,-0.46076965,0.4477539
1515664082872,9.466003,-5.659027,0.34695435,0.85717773,-0.6635742,0.82403564
1515664082895,9.006592,-6.1375885,0.17468262,1.4448242,-0.6660156,2.208252
1515664082918,10.729416,-5.230713,1.282547,1.2725677,-0.6538086,3.0439148
1515664082944,6.4701996,-4.9100647,-0.79681396,0.88404846,0.9405365,3.6352234
1515664082965,6.8410797,-6.673584,-4.2640076,-0.56121826,1.1433411,3.090332
1515664082988,2.864212,-6.094513,0.37088013,-1.6583252,0.9771881,2.0359955
1515664083011,2.6368866,-4.692322,-1.0121613,-1.484848,0.12808228,1.2650757
1515664083041,2.3617096,-4.783249,2.2660065,-0.42315674,-2.0661163,0.45263672
1515664083065,2.4598236,-5.8289185,2.9024963,-0.33520508,-1.0801849,0.70677185
1515664083091,4.2879333,-10.411179,1.134201,0.5566406,-0.43388367,1.7549896
1515664083114,9.549759,-12.064606,-2.136795,0.9647064,-0.83584595,3.813614
1515664083137,13.253845,-10.35614,-1.9214325,0.5041046,-0.7197876,4.1336975
1515664083172,9.867996,-9.142975,-0.32302856,1.0294495,-1.2988739,3.6168976
1515664083194,4.5679016,-5.87677,1.454834,1.3018951,-1.5236664,1.6120605
1515664083216,0.4019928,-5.0345,0.12921143,1.6122131,-0.9738922,1.3396149
1515664083238,-0.35891724,-4.9052887,0.0143585205,1.7637024,-0.8675995,1.2235413
1515664083261,1.4787598,-8.425125,2.7996063,1.9701843,-0.65501404,1.1856842
1515664083284,4.4985046,-13.2921295,5.292923,2.0605774,0.99183655,0.4318695
1515664083307,3.9361877,-16.843079,0.7082825,1.2017212,2.4090424,-0.27792358
1515664083331,1.9477539,-15.24707,-0.9379883,-0.28144836,0.5544586,-0.4501953
1515664083355,2.120041,-9.985245,2.3784637,-0.70661926,-0.85783386,-0.36712646
1515664083379,1.6127625,-10.877777,1.306488,-0.7750244,-0.83584595,0.00793457
1515664083401,2.3665009,-10.518845,0.36849976,-0.57954407,-1.5200195,0.47584534
1515664083424,2.950348,-9.657425,-0.0382843,-0.4537201,-1.3477478,0.64811707
1515664083448,3.6107635,-7.9369965,1.7539368,-0.029785156,-0.08081055,0.27671814
1515664083472,3.1345978,-8.405991,1.6366882,0.14491272,1.4182129,-0.09590149
1515664083495,0.29431152,-5.967697,0.3014984,0.042297363,1.7713013,-0.09712219
1515664083518,5.0033875,-7.010971,-0.9188385,-0.6992645,1.0028381,1.1832428
1515664083543,1.660614,-8.989838,3.7304077,-0.24967957,-0.08204651,0.7678375
1515664083566,-2.2037964,-11.877975,3.0604248,0.9280548,-0.5756073,1.436142
1515664083587,-1.4667969,-9.229111,4.8023987,1.774704,-0.82362366,1.7757721
1515664083610,-2.0530396,-9.241089,3.0221405,2.3941193,-0.6440277,1.9602356
1515664083632,0.73220825,-8.858231,-0.6269226,1.97995,-0.12602234,1.4446716
1515664083655,0.59820557,-13.055237,-0.31585693,0.6287079,-0.11868286,0.9975281
1515664083676,5.419739,-17.374283,2.292328,-0.31199646,-0.036834717,1.2088928
1515664083698,6.065811,-13.907089,1.3567352,-0.3278656,-0.84317017,0.07145691
1515664083720,7.8269196,-11.97847,-1.8879395,-1.2527161,-1.8791962,-2.072647
1515664083744,4.9698944,-11.62912,0.8446655,-1.808609,-2.9262238,-3.4446564
1515664083767,-4.388443,-14.787643,0.447464,-1.781723,-2.3006897,-2.6871643
1515664083790,-6.6424713,-11.820541,4.5966187,-1.7621765,-0.3434906,0.02381897
1515664083814,-1.2993011,-9.729218,3.4743805,-1.5276184,1.2093201,1.9126129
1515664083837,-0.19142151,-6.654434,4.474579,-1.1928558,2.4811249,1.3054047
1515664083861,-2.0243225,-9.367905,2.8809662,-0.88619995,2.65094,0.84114075
1515664083883,5.005783,-4.1036835,-0.5766754,-0.8434448,-0.15045166,1.2479858
1515664083905,6.546768,-4.8765717,1.9692993,-0.5111389,-1.7997742,0.34024048
1515664083926,0.1483612,-7.6666107,0.21534729,0.45767212,-0.93356323,-0.7935028
1515664083950,1.9860382,-6.3146667,0.55274963,0.7081299,0.1207428,-0.59436035
1515664083973,0.3517456,-8.080566,0.5814514,0.33551025,1.5550537,-1.0818329
1515664083995,0.5623169,-9.676575,1.1964111,0.031295776,3.831131,-1.7098083
1515664084019,1.2514496,-10.856232,-2.629715,-0.0029144287,3.4511719,-2.2265778
1515664084043,0.25602722,-13.940582,-4.0749817,-1.572815,3.8128052,-0.20829773
1515664084067,-0.0382843,-14.036301,-2.4957123,-1.7463074,1.4243317,0.19117737
1515664084090,4.273575,-1.6486511,0.7034912,-1.9051056,-1.1815796,1.7696533
1515664084112,9.851257,-8.841476,-0.33738708,-1.3235779,-1.2426758,-0.09223938
1515664084134,3.156128,-13.043274,-1.0289154,-1.0645752,-1.3220825,-1.112381
1515664084158,0.32781982,-13.3615265,-1.9573364,-0.8006897,-0.16389465,-0.8778076
1515664084181,1.1126556,-7.458435,0.2536316,-0.7420349,0.2050476,-0.34268188
1515664084207,1.002594,-13.115067,0.5288086,-0.62353516,0.95274353,0.038467407
1515664084231,3.0915222,-12.622147,3.728012,-0.8104553,1.6430206,0.6517792
1515664084255,-1.9716797,-17.120651,-9.020935,0.6042938,-0.2958374,1.3481598
1515664084278,-5.391037,-25.39264,-11.89711,0.29640198,0.7254944,2.3475342
1515664084299,6.415161,-6.0179443,-8.738586,0.25486755,-1.739914,1.5240936
1515664084320,3.8141632,0.13400269,-0.7728882,-1.0095978,-2.189499,0.7373047
1515664084341,4.4769745,-2.3593292,1.1246338,-1.9808807,1.5257416,0.39033508
1515664084362,6.242874,-6.7788696,-4.508072,-1.4604034,-0.3642578,0.26327515
1515664084385,0.6316986,-9.999603,0.39959717,-1.1708527,-0.49621582,-0.23762512
1515664084408,0.5120697,-10.648056,-4.3238373,-0.83000183,0.21237183,-0.19364929
1515664084431,-5.924637,-8.709869,0.9762726,-0.51968384,0.6729584,0.29748535
1515664084455,-2.2301178,-7.7359924,0.35653687,0.4136963,-0.13212585,0.87657166
1515664084479,-2.876175,-9.74118,-0.18664551,1.2566986,-0.28485107,1.3151703
1515664084503,-2.383255,-10.169495,-5.7762756,0.7313385,-0.18466187,1.7366638
1515664084531,5.7427673,-4.163513,-9.96611,-0.60765076,-0.6367035,1.614502
1515664084555,3.5030975,-6.6472626,-1.414154,-0.44148254,-0.9445648,0.91078186
1515664084579,2.2157593,-14.210968,-5.230713,-1.1672058,-0.6611328,0.64323425
1515664084602,4.8095703,-14.072189,0.24885559,-1.1048889,0.20140076,0.46484375
1515664084626,6.8482513,-11.15773,0.9499512,-0.061538696,0.7194061,-1.0537262
1515664084649,5.8289185,-7.1282196,2.1152496,0.94026184,0.5336914,-1.937027
1515664084673,2.6129608,-9.128616,-15.914658,2.6286926,2.0009918,-1.295639
1515664084697,-1.6007996,-16.62294,3.1369934,0.039855957,1.1592255,-1.2259827
1515664084721,-0.16989136,-11.44487,0.28953552,1.2701263,1.322937,-0.82037354
1515664084744,-0.8685913,-8.755341,-3.7184448,1.6060944,1.4878693,-0.8448181
1515664084772,-2.0147552,-6.7812653,-3.7304077,1.3825226,-0.6415863,-0.4819641
1515664084793,-2.2755737,-7.5182495,-2.251648,1.1589508,-1.7851257,0.07145691
1515664084815,-0.14117432,-6.8147583,-2.7062836,1.1198578,-3.2707367,0.25350952
1515664084838,-1.0097656,-8.659622,2.9527435,0.35749817,-2.6989746,-0.07879639
1515664084861,-0.110076904,-8.403595,-0.5790558,0.42469788,-2.7441864,-0.4905243
1515664084883,0.49291992,-10.344177,-0.8877411,0.8669586,-2.8578033,-0.98287964
1515664084906,3.316452,-10.009171,0.43310547,1.1308594,-2.389862,-1.9541473
1515664084929,5.618347,-8.707489,1.8711853,1.5572357,-1.3978271,-3.3676758
1515664084954,3.9242249,-12.028717,4.886139,1.5547943,0.37243652,-3.646225
1515664084977,2.4143524,-15.043671,2.3976135,1.5963287,3.4133148,-0.4184265
1515664084999,7.759918,-9.315262,-0.5120697,1.4717102,3.0980835,1.1087036
1515664085021,7.2311096,-7.381851,-1.1150513,1.306778,1.3730316,0.22782898
1515664085043,3.9266205,-8.219345,-0.6197357,0.93414307,-0.036834717,-0.59924316
1515664085065,2.4047852,-9.372681,0.007171631,0.27563477,-0.4754181,-0.60536194
1515664085087,2.4717865,-10.00679,0.7417755,-0.33154297,-0.5805054,-0.40621948
1515664085113,2.6847534,-10.1479645,1.4811554,-0.5477905,-0.53041077,-0.3964386
1515664085136,2.1846466,-10.179062,1.9429779,-0.51968384,-0.31782532,-0.41477966
1515664085159,1.6055908,-10.19104,2.2301178,-0.36453247,0.079208374,-0.28892517
1515664085182,2.210968,-9.707687,1.7419739,-0.18493652,0.42617798,-0.047027588
1515664085206,2.823532,-9.590439,1.1652985,-0.13850403,0.4151764,0.017700195
1515664085229,3.4695892,-8.403595,0.8159485,-0.20690918,0.2368164,0.089782715
1515664085253,4.0079803,-9.384644,1.146164,-0.31809998,0.115859985,0.1166687
1515664085276,5.3479614,-10.045074,1.3615112,-0.36697388,0.07310486,0.12521362
1515664085300,4.6420746,-8.626129,1.6031952,-0.27412415,-0.06248474,-0.022583008
1515664085322,4.08934,-8.446671,1.071991,-0.20202637,-0.09303284,0.01159668
1515664085345,4.268799,-8.755341,0.58384705,-0.11651611,-0.2310791,0.09466553
1515664085368,4.421936,-9.12384,0.61016846,-0.05419922,-0.3630371,0.09222412
1515664085392,4.1228333,-9.635895,0.6508484,0.045959473,-0.2836151,0.045806885
1515664085416,3.270996,-9.152542,0.33499146,-0.017547607,-0.16389465,0.04458618
1515664085440,3.1417694,-9.430115,0.279953,-0.15072632,-0.14068604,0.073898315
1515664085461,3.3403778,-9.61676,0.41156006,-0.23747253,-0.20666504,0.10810852
1515664085482,3.5437775,-9.676575,0.47138977,-0.23867798,-0.20054626,0.17529297
1515664085503,3.8739777,-9.580856,-0.04067993,-0.18249512,-0.23840332,0.20706177
1515664085524,4.2472534,-9.178864,-0.52163696,-0.24235535,-0.23719788,0.21929932
1515664085545,4.3286133,-9.159729,0.1531372,-0.3449707,-0.14556885,0.16796875
1515664085566,4.0390778,-9.202789,1.0528412,-0.3242035,-0.10891724,0.14353943
1515664085587,3.7615204,-9.214767,0.93559265,-0.19714355,-0.3092804,0.114227295
1515664085608,3.431305,-9.142975,-0.24885559,-0.1434021,-0.5707245,0.105667114
1515664085629,3.632309,-9.1453705,-1.9980011,-0.34375,-0.68434143,0.053131104
1515664085650,3.8955078,-9.286545,-3.2446747,-0.7628021,-0.78330994,-0.07879639
1515664085671,3.7471619,-9.698105,-3.287735,-1.3480072,-0.82118225,-0.20217896
1515664085691,3.809372,-10.217346,-3.2853394,-1.7487488,-0.76620483,-0.28404236
1515664085712,4.2137604,-10.78923,-4.2711945,-2.0859375,-0.5487366,-0.4159851
1515664085734,3.8356934,-10.841873,-1.6007996,-2.0737152,-0.36914062,-0.5503845
1515664085755,3.5940247,-10.485352,-1.3232269,-1.559372,-0.10157776,-0.58825684
1515664085776,3.735199,-10.069,-2.3736877,-1.0547943,-0.3434906,-0.54914856
1515664085797,4.153946,-9.789032,-1.6175537,-1.0046997,-0.70755005,-0.4477539
1515664085819,4.165909,-9.303299,-1.5361938,-1.1293182,-0.7772064,-0.36956787
1515664085843,4.443466,-8.1427765,-1.4691925,-0.91674805,-0.6342468,-0.40133667
1515664085867,4.816757,-7.8221436,-2.9072723,-0.59176636,-0.57928467,-0.56259155
1515664085890,4.5918274,-7.613968,-3.4719849,-0.4610443,-0.70510864,-0.67744446
1515664085913,4.405182,-7.4608154,-3.3810577,-0.277771,-1.058197,-0.67744446
1515664085934,4.23291,-7.183258,-3.5150604,-0.12506104,-1.170578,-0.6175842
1515664085956,3.8763733,-7.0420837,-3.6993103,-0.068878174,-1.1290436,-0.54914856
1515664085980,3.3044891,-7.350754,-4.1563263,-0.09941101,-1.146164,-0.5516052
1515664086004,3.1345978,-7.6546326,-4.1204376,-0.09085083,-0.9555664,-0.4954071
1515664086029,3.3619232,-7.8436737,-4.864609,-0.01878357,-0.81752014,-0.4135437
1515664086052,3.6155548,-7.841278,-5.1110687,-0.05419922,-0.82240295,-0.30358887
1515664086075,3.6011963,-7.762314,-5.161316,-0.121398926,-0.85783386,-0.23394775
1515664086096,3.5772705,-7.6115723,-5.2498474,-0.084747314,-0.8786011,-0.20585632
1515664086119,3.7591248,-7.951355,-5.6973114,0.11682129,-0.78453064,-0.13987732
1515664086143,3.883545,-7.680954,-6.51326,0.1669159,-0.6648102,-0.12033081
1515664086167,3.4863434,-6.86261,-6.0969086,0.20477295,-0.5572815,-0.21318054
1515664086191,3.0460663,-6.5850525,-5.2881317,0.32450867,-0.43023682,-0.24494934
1515664086214,2.3090668,-7.039688,-5.0488586,0.45890808,-0.047836304,-0.08001709
1515664086238,2.244461,-7.0133667,-5.67099,0.4686737,0.399292,0.1166687
1515664086261,2.5579224,-6.22612,-5.781067,0.4185791,0.72673035,0.26203918
1515664086286,2.2827454,-5.477173,-5.0416718,0.44178772,1.2765045,0.42330933
1515664086309,2.033905,-4.8143616,-4.512863,0.31472778,2.070633,0.62490845
1515664086334,3.3595276,-3.287735,-3.4217377,0.21209717,2.4102783,0.43307495
1515664086358,3.6011963,-2.7900238,-4.3262177,0.19744873,1.8348236,0.020141602
1515664086381,7.2335052,-5.1828613,-5.71167,-0.44148254,1.0932465,-0.46240234
1515664086403,12.227325,-13.768295,-5.161316,-0.69317627,1.1152344,-1.124588
1515664086426,1.9692993,-13.060028,1.8137665,-0.7591553,1.2215271,-0.63591003
1515664086450,-2.3186493,-4.9698944,-4.158722,-1.0657959,-2.4924927,0.8594818
1515664086473,2.629715,-3.677765,12.849457,1.0550995,2.6411743,1.098938
1515664086496,3.8644104,-12.325424,5.6327057,2.9695435,3.7248383,0.9706421
1515664086519,6.855438,-16.488937,-8.346161,2.634781,3.437729,1.1270294
1515664086542,6.855438,-16.488937,-8.346161,2.634781,3.437729,1.1270294
1515664086565,11.461624,-17.27858,6.3146667,0.4931183,0.4811554,0.7128601
1515664086588,13.124634,-18.343384,2.7445679,3.4484558,2.288086,1.2064514
1515664086612,14.455048,-17.864822,-2.4430695,4.788681,-0.44732666,1.3078461
1515664086635,13.741974,-13.875977,-13.6008,3.757553,0.3027954,0.94499207
1515664086658,8.910873,-13.000198,-10.514069,1.8565521,0.8342438,0.19485474
1515664086682,0.7082825,-11.540588,-17.802597,0.8229675,0.8977661,0.056793213
1515664086706,-1.5792694,-6.7860413,-4.857437,-0.47813416,-0.72343445,0.57481384
1515664086729,-0.67237854,-2.6249237,-0.44506836,-0.90818787,0.36997986,1.0268555
1515664086751,2.1583252,0.21534729,-1.071991,-1.1281128,0.60821533,1.1331482
1515664086775,3.9194489,2.9527435,-4.6085815,-1.3504486,-0.049041748,0.7153015
1515664086798,4.82872,3.907486,-5.223526,-2.092041,-1.303772,-0.3793335
1515664086822,0.23210144,-0.8685913,-2.4957123,-2.6613617,-2.3238983,-1.085495
1515664086843,1.0600128,-3.0053864,5.522629,-1.6839752,-3.256073,-1.0292969
1515664086865,2.6775665,-6.4630127,3.5126648,-0.92163086,-2.8907776,-1.085495
1515664086887,6.9439697,-13.009781,-4.352539,-1.8110504,-2.0270233,-1.2369843
1515664086910,12.016754,-26.976685,-6.2668,-5.1769104,0.5984497,-1.9859161
1515664086934,12.090927,-42.472595,-8.877365,-5.6570435,3.9019928,-2.6004333
1515664086959,9.360718,-28.31427,-2.658432,-2.739563,1.1030121,-1.3066254
1515664086981,11.375473,-11.583649,-2.3449707,-1.498291,-1.6824951,-1.5741882
1515664087006,7.7120667,-5.7667084,1.8759766,-0.60154724,-1.482132,-1.4434662
1515664087027,3.9266205,-3.6705933,1.3280182,0.7081299,-1.6250763,-0.4159851
1515664087049,0.7920227,-3.8141632,3.2231293,1.668396,-1.4357147,0.93766785
1515664087072,-1.3997955,-3.316452,5.3982086,2.1485443,0.24537659,1.8002014
1515664087096,-1.9214325,-2.0697937,3.2733765,2.5199585,2.4518127,2.3866425
1515664087119,-0.33021545,0.42591858,1.2514496,2.6188965,2.6717072,2.711609
1515664087142,2.7684937,1.483551,3.1082764,2.8070526,2.0290833,2.409851
1515664087166,3.156128,1.4428711,0.91166687,3.0122986,1.7529755,1.5204315
1515664087190,11.755936,1.9333954,-36.67479,-1.0975647,-0.5682831,-0.1459961
1515664087214,6.278763,-3.6993103,-7.9465637,-6.616089,-0.8993683,-2.2962189
1515664087237,3.0867462,-1.4333038,10.743774,-4.4340973,8.350296,-2.5222473
1515664087262,1.1437683,-7.9082794,-1.9692993,0.24998474,5.003998,-1.824646
1515664087288,-0.119644165,-20.81755,-0.8422699,2.3122559,1.9411316,-0.57115173
1515664087312,-0.4665985,-29.063232,2.6656036,1.8675537,1.117691,2.0921936
1515664087337,4.898102,-22.645676,1.3471527,0.7215729,0.091430664,3.5643616
1515664087360,7.733597,-15.41217,5.1756744,1.1051941,-3.1094666,2.693283
1515664087384,8.362915,-16.395615,6.3912354,2.7288666,-5.161972,2.155716
1515664087408,10.425522,-20.059036,8.925232,5.101471,-5.940216,2.335312
1515664087431,13.706085,-22.959137,-1.5936127,6.9719086,2.2685394,2.2595673
1515664087452,10.9328,-21.982864,-31.59961,2.5333862,4.3625793,1.7440033
1515664087474,5.934204,-15.139389,-11.968903,-1.3968811,1.7554169,0.96943665
1515664087496,1.2705841,-8.987442,-3.7088776,-1.1598663,4.186661,0.5027313
1515664087519,0.80877686,-2.5052795,-2.1511536,-1.2673798,3.0871124,1.1612396
1515664087540,3.1058807,2.0602264,0.21057129,-0.81411743,0.6069946,1.3225098
1515664087561,8.288742,6.7836456,-2.3377838,-1.0609131,0.5520172,0.28160095
1515664087582,9.028122,7.618744,-6.6137695,-2.1653595,0.6851959,-1.4104614
1515664087604,4.2352905,5.8121643,-5.297714,-2.8873749,-0.29829407,-2.4208527
1515664087626,-0.01914978,1.1557312,-2.3377838,-2.7065735,-2.3703308,-2.0873108
1515664087651,3.316452,-2.8426666,1.7036896,-1.7255402,-4.184601,-2.1056366
1515664087675,5.749954,-9.241089,-2.663208,-1.4738464,-5.4600677,-2.2681274
1515664087700,12.138794,-25.170105,0.7776642,-3.434723,-0.85905457,-3.1734314
1515664087724,14.823532,-49.445297,-2.3665009,-3.929535,5.691818,-4.6114044
1515664087750,10.595413,-37.462036,-10.58345,-2.1738892,3.3302155,-2.4000854
1515664087773,7.566101,-12.887741,-2.2564392,-0.3413086,-2.1223145,-2.3231049
1515664087796,4.4243317,-6.3840485,2.3377838,0.24266052,-3.1351166,-1.7598877
1515664087822,-0.24885559,-3.0795593,4.6420746,1.0538788,-2.906662,0.53938293
1515664087847,-2.526825,-4.2233276,5.190033,1.3605347,-0.74176025,2.1789246
1515664087873,-2.3282166,-3.115448,4.261612,1.7966919,0.7878113,3.0243683
1515664087899,-1.2610168,-0.66760254,1.483551,2.2707214,1.3192596,3.3688812
1515664087923,1.3758698,1.3734741,0.5766754,2.54805,0.5422516,3.0317078
1515664087949,4.08934,2.7852478,-2.0147552,2.4967346,-0.9445648,1.4850006
1515664087973,12.818344,-0.07896423,-27.058044,-2.219101,-3.6836853,-1.0195312
1515664088000,6.0394897,-3.1944122,14.347366,-6.179947,2.070633,-3.5790405
1515664088027,-1.1892395,-2.7421722,9.812973,-1.6461182,7.9764557,-2.8765564
1515664088052,1.2849426,-10.868195,-0.88534546,1.7954712,4.4578857,-1.3029633
1515664088078,-2.5507507,-25.43332,-2.490921,1.7942505,1.8739166,-0.12399292
1515664088102,-2.6249237,-32.463425,2.560318,0.33551025,1.2056427,2.2497864
1515664088125,3.0029907,-22.45903,3.797409,0.23777771,-1.2255859,3.493515
1515664088151,6.9511566,-19.82454,3.637085,1.0856476,-4.0111084,3.729309
1515664088177,13.213165,-20.810379,7.247864,4.0275574,-7.6322937,3.0940094
1515664088204,11.241486,-22.15036,7.5062866,8.769089,-1.9073029,2.5332336
1515664088232,7.984848,-19.946564,-36.655655,2.5798035,4.4358826,2.130066
1515664088264,3.0173492,-10.595413,0.17945862,-1.2111816,4.5885925,0.43307495
1515664088288,-1.6247253,-5.9078827,-5.2259216,-0.16905212,4.0644684,1.032959
1515664088311,1.4069824,0.15074158,-3.7471619,-0.7505951,1.414566,1.7513428
1515664088334,7.4081726,5.8983154,-1.4428711,-0.62231445,-0.40701294,1.0012054
1515664088358,10.796417,9.102295,-6.4654083,-1.5386047,0.42861938,-1.0354156
1515664088382,3.0747833,6.072983,-6.168701,-2.817749,0.32234192,-2.4330597
1515664088408,-0.653244,-0.30389404,-3.7184448,-2.7126923,-2.1882935,-1.7085724
1515664088430,1.9836426,-2.7876434,-0.25842285,-2.7810974,-3.1290283,-1.7158966
1515664088453,3.5317993,-6.305084,0.8279114,-2.3253937,-4.3605194,-2.3072205
1515664088477,8.231308,-17.350357,-3.797409,-3.2429047,-4.0746307,-2.9865112
1515664088500,11.7391815,-35.090744,-0.107681274,-4.7382965,4.1268005,-4.602844
1515664088524,5.996414,-52.89334,-11.030914,-3.2612305,5.2287903,-3.9993134
1515664088547,9.82254,-31.980072,-4.689926,-1.1171112,0.8293457,-1.8649597
1515664088572,7.412964,-10.4231415,-2.1583252,-0.5453491,-0.5927124,-2.3585205
1515664088596,4.922043,-5.946167,0.82073975,0.30984497,-2.845581,-1.5851746
1515664088619,0.79681396,-4.926819,3.7662964,1.1222992,-2.918869,0.19117737
1515664088642,-2.0913239,-5.556137,5.5130615,1.4692688,-1.4308319,1.5118713
1515664088665,-3.7208405,-4.64447,5.1541443,1.6366272,0.68640137,2.506363
1515664088688,-3.5413818,-2.9575348,3.098709,1.7856903,2.1060486,3.2589417
1515664088713,-1.7563324,-0.7465668,1.8017883,1.8125763,2.7120361,3.5313873
1515664088738,1.1078796,2.0650024,-0.5383911,2.0630188,1.838501,2.8679962
1515664088765,7.3459625,5.170883,-20.32225,1.206604,-0.9604492,1.2186584
1515664088793,12.208176,-2.1798553,-7.319641,-3.7071686,-4.8846436,-2.2290192
1515664088820,5.81456,-2.4550323,17.127823,-1.266159,4.21109,-3.3481293
1515664088846,-1.6223297,-3.4815521,2.1152496,1.8822021,4.2990417,-2.2436981
1515664088872,1.3304138,-9.9756775,3.7328033,1.8638763,2.5031128,-0.94255066
1515664088898,-1.4045868,-28.187454,-2.725418,0.3501587,2.6802673,-0.39889526
1515664088924,-3.041275,-28.957947,5.8863373,-1.4481964,3.0357819,1.4654388
1515664088949,1.1629181,-17.903091,2.4095764,0.22798157,1.0834808,2.666397
1515664088976,5.223526,-18.175888,0.06460571,1.2664642,-0.6403656,3.2381744
1515664088997,8.571091,-21.377472,1.1940155,2.102127,-1.5187836,3.5533752
1515664089021,11.715256,-24.734604,2.4406738,3.416687,-3.449112,3.7928314
1515664089042,15.787842,-24.78247,-1.976471,3.4851074,0.19648743,3.7855072
1515664089063,12.760925,-19.774292,-13.818558,1.2298126,2.8977203,3.0927734
1515664089084,6.9056854,-11.648254,-14.81636,-0.13850403,2.3027496,1.9223785
1515664089105,0.32302856,-7.4680023,-2.8498535,0.2536621,-0.39234924,1.2235413
1515664089127,0.093322754,-2.629715,0.825531,-0.26800537,0.5129242,1.8002014
1515664089149,1.454834,-0.99302673,1.7946167,-0.28633118,0.43229675,1.9076996
1515664089177,1.454834,-0.99302673,1.7946167,-0.28633118,0.43229675,1.9076996
1515664089200,1.454834,-0.99302673,1.7946167,-0.28633118,0.43229675,1.9076996
1515664089223,1.454834,-0.99302673,1.7946167,-0.28633118,0.43229675,1.9076996
1515664089249,1.454834,-0.99302673,1.7946167,-0.28633118,0.43229675,1.9076996
1515664089276,1.454834,-0.99302673,1.7946167,-0.28633118,0.43229675,1.9076996
1515664089598,1.454834,-0.99302673,1.7946167,-0.28633118,0.43229675,1.9076996
1515664089620,1.454834,-0.99302673,1.7946167,-0.28633118,0.43229675,1.9076996
1515664089642,1.454834,-0.99302673,1.7946167,-0.28633118,0.43229675,1.9076996
1515664089664,1.454834,-0.99302673,1.7946167,-0.28633118,0.43229675,1.9076996
1515664089685,1.454834,-0.99302673,1.7946167,-0.28633118,0.43229675,1.9076996
1515664089706,1.454834,-0.99302673,1.7946167,-0.28633118,0.43229675,1.9076996
1515664089727,1.454834,-0.99302673,1.7946167,-0.28633118,0.43229675,1.9076996
1515664089748,1.454834,-0.99302673,1.7946167,-0.28633118,0.43229675,1.9076996
1515664089769,1.454834,-0.99302673,1.7946167,-0.28633118,0.43229675,1.9076996
1515664089790,1.454834,-0.99302673,1.7946167,-0.28633118,0.43229675,1.9076996
1515664089812,5.005783,-24.90689,4.0582275,4.2010345,-5.5260468,3.34935
1515664089859,5.7834473,-25.141388,4.639679,5.37146,-4.656189,3.580246
1515664089881,5.7834473,-25.141388,4.639679,5.37146,-4.656189,3.580246
1515664089902,5.7834473,-25.141388,4.639679,5.37146,-4.656189,3.580246
1515664089926,5.7834473,-25.141388,4.639679,5.37146,-4.656189,3.580246
1515664089953,5.7834473,-25.141388,4.639679,5.37146,-4.656189,3.580246
1515664090599,-1.6438751,0.78245544,2.9527435,-1.6351166,1.0834808,-0.99020386
1515664090624,2.3066864,-19.592438,2.342575,1.3544312,-3.322052,3.3970032
1515664090645,5.510666,-23.686554,2.7541351,3.7172394,-6.0245056,3.1648712
1515664090667,6.180664,-26.87619,14.694321,5.6255646,-1.0496368,3.029251
1515664090688,7.4440765,-21.458832,-15.546173,4.4429474,7.5219574,2.335312
1515664090710,4.158722,-9.243469,-34.509293,-1.0059357,5.3815002,1.447113
1515664090731,0.1986084,-8.224136,0.112457275,-0.7432709,-1.105835,1.0219727
1515664090753,2.0602264,-3.1704865,3.8955078,-0.6784973,0.69740295,1.8515167
1515664090774,6.530014,2.096115,1.730011,0.06062317,-1.0166626,1.8075256
1515664090795,7.290924,3.4097748,1.421341,0.23777771,-1.5994263,1.6584778
1515664090822,7.290924,3.4097748,1.421341,0.23777771,-1.5994263,1.6584778
1515664090843,7.290924,3.4097748,1.421341,0.23777771,-1.5994263,1.6584778
1515664090864,7.290924,3.4097748,1.421341,0.23777771,-1.5994263,1.6584778
1515664090886,7.290924,3.4097748,1.421341,0.23777771,-1.5994263,1.6584778
1515664090907,7.290924,3.4097748,1.421341,0.23777771,-1.5994263,1.6584778
1515664097241,-1.5649109,-6.3936157,0.6029968,0.23777771,-1.5994263,1.6584778
1515664097265,4.675583,-15.878769,-1.8089752,-2.8495178,2.0926056,-1.3799286
1515664097289,-0.20100403,-10.537994,-15.914658,2.8803558,-2.8578033,3.3334656
1515664097310,-1.2299042,-4.2233276,-2.388031,-0.17515564,1.0223846,1.0744934
1515664097331,2.2492523,-1.351944,1.0217285,-0.33154297,2.2099152,0.91322327
1515664097353,5.6805573,-0.122039795,-2.7445679,0.16201782,0.8611145,0.8484802
1515664097398,6.65683,0.8111725,-4.3956146,0.638504,-1.4711304,0.91934204
1515664097419,6.65683,0.8111725,-4.3956146,0.638504,-1.4711304,0.91934204
1515664097440,6.65683,0.8111725,-4.3956146,0.638504,-1.4711304,0.91934204
1515664097461,6.65683,0.8111725,-4.3956146,0.638504,-1.4711304,0.91934204
1515664097482,6.65683,0.8111725,-4.3956146,0.638504,-1.4711304,0.91934204
1515664097504,6.65683,0.8111725,-4.3956146,0.638504,-1.4711304,0.91934204
1515664099057,8.092529,2.0602264,2.342575,-0.7127075,0.06454468,1.434906
1515664099079,5.2378845,-23.272598,7.1186523,-1.9992065,3.5110474,-6.7420807
1515664099102,2.3665009,-70.77969,-10.411179,1.1748352,5.53421,-4.4122467
1515664099124,1.9740753,-24.84468,-10.7030945,0.54563904,-1.7435913,-1.718338
1515664099146,4.687546,-11.021347,-6.386444,-0.25823975,-4.8968506,-0.33657837
1515664099167,1.5026855,-3.3690948,0.61016846,-0.7273865,-5.6750946,0.7812805
1515664099206,-2.0697937,-1.5050812,6.4008026,-0.93507385,-4.8907623,1.3579254
1515664099228,-2.0697937,-1.5050812,6.4008026,-0.93507385,-4.8907623,1.3579254
1515664099249,-2.0697937,-1.5050812,6.4008026,-0.93507385,-4.8907623,1.3579254
1515664099270,-2.0697937,-1.5050812,6.4008026,-0.93507385,-4.8907623,1.3579254
1515664099291,-2.0697937,-1.5050812,6.4008026,-0.93507385,-4.8907623,1.3579254
1515664099313,-2.0697937,-1.5050812,6.4008026,-0.93507385,-4.8907623,1.3579254
1515664103950,-2.0697937,-1.5050812,6.4008026,-0.93507385,-4.8907623,1.3579254
1515664103979,-2.0697937,-1.5050812,6.4008026,-0.93507385,-4.8907623,1.3579254
1515664104001,-2.0697937,-1.5050812,6.4008026,-0.93507385,-4.8907623,1.3579254
1515664104023,-2.0697937,-1.5050812,6.4008026,-0.93507385,-4.8907623,1.3579254
1515664104044,-2.0697937,-1.5050812,6.4008026,-0.93507385,-4.8907623,1.3579254
1515664104217,-2.0697937,-1.5050812,6.4008026,-0.93507385,-4.8907623,1.3579254
1515664104238,-2.0697937,-1.5050812,6.4008026,-0.93507385,-4.8907623,1.3579254
1515664104259,-2.0697937,-1.5050812,6.4008026,-0.93507385,-4.8907623,1.3579254
1515664104280,-2.0697937,-1.5050812,6.4008026,-0.93507385,-4.8907623,1.3579254
1515664104301,-2.0697937,-1.5050812,6.4008026,-0.93507385,-4.8907623,1.3579254
1515664104322,-2.0697937,-1.5050812,6.4008026,-0.93507385,-4.8907623,1.3579254
1515664104343,-2.0697937,-1.5050812,6.4008026,-0.93507385,-4.8907623,1.3579254
1515664104365,-2.0697937,-1.5050812,6.4008026,-0.93507385,-4.8907623,1.3579254
1515664104387,-2.0697937,-1.5050812,6.4008026,-0.93507385,-4.8907623,1.3579254
1515664104410,-2.0697937,-1.5050812,6.4008026,-0.93507385,-4.8907623,1.3579254
1515664104434,-2.5842438,0.55752563,11.85643,-0.93507385,-4.8907623,1.3579254
1515664104459,9.049652,-1.6630096,-18.025131,-0.93507385,-4.8907623,1.3579254
1515664104482,6.1040955,-2.4885406,2.0626068,-1.1586456,-1.5175629,1.5363007
1515664104504,10.858627,3.550949,0.41156006,-0.3742981,-1.4405975,1.500885
1515664104528,18.68077,11.062027,-3.4863434,-0.3449707,0.25881958,-0.29748535
1515664104549,11.619553,9.784256,-8.307877,-1.5141754,1.51474,-1.6865997
1515664104570,-0.25125122,1.5409851,-7.3866425,-2.6699219,0.63142395,-1.8185272
1515664104591,1.1916199,-1.4045868,-3.1752777,-4.088333,2.6851501,-2.156952
1515664104612,1.8400879,-4.019943,-0.7513428,-4.2190704,1.2288513,-3.1331024
1515664104633,3.2446747,-10.470993,-0.38285828,-4.3803253,-0.14434814,-4.437912
1515664104654,8.262421,-26.912079,13.95015,-2.5416412,1.1531067,-6.4806366
1515664104675,5.7762756,-61.32805,-6.025131,1.6403046,5.0052032,-9.172104
1515664104697,-8.195419,-78.24051,-10.317856,-1.8709106,7.969116,-6.4158783
1515664104718,-1.5385895,-28.88855,-8.803192,-0.1458435,3.3057861,-3.313919
1515664104739,-4.823929,-13.562515,-5.3647156,-0.5453491,-0.38746643,-2.4697113
1515664104761,-5.7092743,-5.69014,-1.426117,-1.2771606,-3.1558838,-1.3640442
1515664104782,-4.3094788,-0.9690857,4.055832,-1.5776978,-4.248123,-0.28771973
1515664104803,-3.7375946,2.038681,7.7695007,-1.3296814,-4.0465393,0.3292389
1515664104823,-3.2853394,5.168503,7.35553,-0.7909088,-3.6592407,0.8130493
1515664104844,-1.8568268,8.011169,6.24527,-0.4854889,-4.4301453,1.2198944
1515664104865,-1.7108612,8.611771,8.161911,-0.36453247,-5.2425995,1.4373474
1515664104887,-0.8063812,7.779068,9.214767,0.39048767,-3.435669,1.2369843
1515664104908,-0.41156006,5.7068787,2.9335938,0.830307,-1.1644897,0.7678375
1515664104931,3.7471619,0.81355286,-12.997818,-3.928299,2.1256104,-0.39033508
1515664104955,-6.025131,-7.635498,-50.835526,-1.5838013,3.2471466,-0.4819641
1515664104983,0.18902588,-18.702301,51.302124,1.5596771,3.4108734,-2.9351807
1515664105006,-6.8027954,-44.05905,6.9391785,3.3995972,6.5177155,-2.1361847
1515664105028,-12.610168,-48.16513,1.8113708,-2.3082886,4.6362457,-0.5516052
1515664105051,-4.7688904,-31.144974,2.8091736,-3.282013,1.9008026,2.235138
1515664105073,2.945572,-22.037903,-14.787643,6.1215973,-5.570038,3.5631561
1515664105095,5.85524,-11.332413,-9.628723,-1.3602295,0.7878113,2.50148
1515664105119,0.38523865,-11.514267,3.6442719,-2.0224152,0.24169922,1.627945
1515664105140,-0.5479584,-10.66481,3.3332062,0.8315277,-1.5725403,1.6193848
1515664105166,0.43310547,-10.518845,1.0384827,1.9090881,-2.431427,2.0433197
1515664105187,3.1657104,-8.602203,-0.19621277,2.412445,-0.564621,2.303543
1515664105208,5.2737885,-6.690338,-3.2686005,1.5792236,2.3198547,2.0274506
1515664105230,3.9338074,-5.3359985,-3.2662048,0.92437744,2.747467,1.3811493
1515664105251,2.1607208,-4.43869,-5.75235,0.9512634,2.4664612,1.0549469
1515664105272,1.689331,-4.0534363,-4.898102,0.24021912,1.7590942,1.0219727
1515664105293,2.0889282,-3.7447662,-1.3256226,0.12658691,0.98083496,0.8484802
1515664105314,2.0434723,-3.7040863,-0.2416687,0.30496216,0.63386536,0.6371155
1515664105335,1.4045868,-3.493515,-1.1916199,0.21333313,0.8501129,0.46852112
1515664105356,1.2107697,-3.254242,-2.1750793,-0.21914673,1.3864441,0.4184265
1515664105377,0.73698425,-2.8953094,-1.5409851,-0.56121826,1.117691,0.32313538
1515664105398,0.87098694,-3.7447662,-0.76330566,-0.64430237,0.5361328,0.0848999
1515664105419,0.89730835,-7.5350037,0.16989136,-0.81411743,-0.47053528,-0.43798828
1515664105441,0.90927124,-11.971298,1.1318054,-1.0486908,-0.87371826,-0.9474335
1515664105465,-0.33259583,-18.951157,3.625122,-1.0792389,-0.4913025,-1.5888519
1515664105488,-3.2733765,-25.14856,5.9485626,-0.3254242,0.98573303,-1.7562256
1515664105514,-5.9150543,-26.682373,3.6969147,0.8694,1.8531494,-1.0488434
1515664105539,-7.001404,-18.84108,-3.929016,1.6769562,1.3046112,-0.21562195
1515664105562,-7.3220367,-13.4691925,-13.588837,1.6024323,-2.038025,-0.10810852
1515664105585,-5.781067,-9.879959,-2.8546448,-0.12628174,-3.5749512,0.3304596
1515664105608,-4.4243317,-6.5611267,1.9142609,-0.4353943,-1.4015045,0.91078186
1515664105633,-2.1343994,-4.8717804,-0.047851562,-0.14216614,0.65463257,1.0781555
1515664105657,-1.2107697,-6.22612,-1.7874451,-0.4121704,1.1995239,0.8313751
1515664105679,-0.9834442,-6.8075867,-1.426117,-0.58932495,1.007721,0.8619232
1515664105702,0.0143585205,-6.6831512,-0.21296692,-0.5978699,0.41029358,0.89733887
1515664105726,0.38763428,-6.55394,0.63648987,-0.48057556,0.10121155,0.7935028
1515664105751,-0.023925781,-7.0085754,1.0408783,-0.33154297,-0.014846802,0.6212311
1515664105775,0.20578003,-8.17627,0.6699829,-0.17149353,0.054779053,0.5369415
1515664105800,0.5814514,-9.970886,-0.28953552,0.050842285,-0.039276123,0.33413696
1515664105822,0.17706299,-11.590836,-0.9762726,0.28663635,-0.14189148,0.12643433
1515664105843,-0.06939697,-11.810974,-1.5720825,0.42713928,-0.14312744,0.07635498
1515664105864,-0.23210144,-10.566711,-1.5409851,0.27198792,-0.15533447,0.040908813
1515664105886,-0.93559265,-10.7030945,-1.3136597,0.31962585,-0.2921753,0.04824829
1515664105908,-1.5505524,-10.506882,-1.6295166,0.53341675,-0.2836151,0.03970337
1515664105931,-2.2827454,-9.8033905,-2.5124664,0.39413452,-0.020950317,0.13743591
1515664105955,-2.4095764,-9.011368,-1.0121613,0.038619995,0.10487366,0.2962494
1515664105978,-1.3375854,-9.102295,0.3900299,-0.021224976,0.1390686,0.3524475
1515664106001,0.35414124,-10.679169,-0.30389404,0.045959473,0.10975647,0.28892517
1515664106025,1.0193481,-11.665009,-1.134201,0.10215759,-0.028274536,0.12399292
1515664106048,0.48095703,-11.3013,-1.0552368,0.18035889,-0.14556885,-0.037261963
1515664106071,-0.51924133,-10.406387,-1.2945099,0.24510193,-0.11868286,-0.16308594
1515664106094,-0.9308014,-9.611969,-1.3926239,0.26219177,-0.2445221,-0.21073914
1515664106118,-1.4811554,-9.114258,-1.1246338,0.22677612,-0.3080597,-0.18508911
1515664106196,-1.7348022,-8.98027,-1.1246338,0.26586914,-0.36547852,-0.1960907
1515664106219,-1.7348022,-8.98027,-1.1246338,0.26586914,-0.36547852,-0.1960907
1515664106242,-1.7348022,-8.98027,-1.1246338,0.26586914,-0.36547852,-0.1960907
1515664106266,-1.7348022,-8.98027,-1.1246338,0.26586914,-0.36547852,-0.1960907
1515664106288,-1.7348022,-8.98027,-1.1246338,0.26586914,-0.36547852,-0.1960907
1515664106466,-1.7348022,-8.98027,-1.1246338,0.26586914,-0.36547852,-0.1960907
1515664106488,-1.7348022,-8.98027,-1.1246338,0.26586914,-0.36547852,-0.1960907
1515664106509,-1.7348022,-8.98027,-1.1246338,0.26586914,-0.36547852,-0.1960907
1515664106530,-1.7348022,-8.98027,-1.1246338,0.26586914,-0.36547852,-0.1960907
1515664106553,-1.7348022,-8.98027,-1.1246338,0.26586914,-0.36547852,-0.1960907
1515664106576,-1.7348022,-8.98027,-1.1246338,0.26586914,-0.36547852,-0.1960907
1515664106599,-1.7348022,-8.98027,-1.1246338,0.26586914,-0.36547852,-0.1960907
1515664106623,-1.7348022,-8.98027,-1.1246338,0.26586914,-0.36547852,-0.1960907
1515664106646,-1.7348022,-8.98027,-1.1246338,0.26586914,-0.36547852,-0.1960907
1515664106669,-1.7348022,-8.98027,-1.1246338,0.26586914,-0.36547852,-0.1960907
1515664106693,-2.050644,-10.100098,0.26081848,0.24630737,0.1207428,0.08001709
1515664106716,-2.0003967,-9.999603,0.1603241,0.20965576,0.1366272,0.10810852
1515664106741,-1.8065796,-9.841675,0.35414124,0.18156433,0.103652954,0.12155151
1515664106764,-1.6845398,-9.853638,0.4905243,0.22309875,0.07798767,0.12277222
1515664106789,-1.689331,-9.923035,0.70588684,0.21089172,0.11953735,0.117889404
1515664106812,-1.9381866,-9.918243,0.39720154,0.22065735,0.087768555,0.12399292
1515664106836,-1.9932251,-9.870392,0.5001068,0.23165894,0.02545166,0.1508789
1515664106860,-1.8089752,-9.745972,0.74417114,0.1717987,0.09509277,0.17408752
1515664106883,-1.701294,-9.832108,1.1820526,0.15467834,0.18060303,0.17897034
1515664106907,-2.0171509,-10.104889,0.69392395,0.2512207,0.112197876,0.16796875
1515664106931,-2.0195465,-10.1479645,0.25842285,0.27319336,-0.09059143,0.21806335
1515664106955,-1.5553284,-9.867996,0.62931824,0.21577454,-0.100357056,0.22050476
1515664106978,-1.2442627,-9.734009,0.98106384,0.17056274,0.11341858,0.1667633
1515664107001,-1.2562256,-9.717255,0.97387695,0.16447449,0.21481323,0.12765503
1515664107024,-1.409378,-9.765106,1.0432739,0.1876831,0.19648743,0.11299133
1515664107049,-1.5936127,-9.516251,0.7848511,0.27687073,0.08288574,0.10322571
1515664107074,-1.4165497,-9.686142,0.5264282,0.32817078,-0.091812134,0.08856201
1515664107098,-0.8877411,-9.705292,0.6125641,0.28175354,-0.12236023,0.053131104
1515664107123,-0.6149597,-9.542572,0.93559265,0.2512207,-0.16021729,-6.2561035E-4
1515664107148,-0.75852966,-9.667007,1.0887299,0.28419495,-0.23719788,-0.058029175
1515664107172,-1.3351898,-9.59761,0.85902405,0.35993958,-0.40945435,-0.09100342
1515664107196,-2.3282166,-9.643082,0.8638153,0.34039307,-0.51330566,-0.1007843
1515664107222,-3.180069,-9.738785,0.17468262,0.38804626,-0.55607605,0.0018157959
1515664107247,-2.6273193,-9.812973,0.057434082,0.09849548,-0.45344543,0.12399292
1515664107271,-1.1629181,-10.310669,0.9068756,-0.27656555,-0.055160522,0.13743591
1515664107296,-0.40678406,-10.676773,1.0121613,-0.31443787,-0.12602234,0.09590149
1515664107320,-0.41156006,-10.219742,1.552948,-0.3620758,-0.19566345,0.04458618
1515664107343,-0.7920227,-9.98764,2.1583252,-0.25700378,-0.051483154,0.012817383
1515664107368,-1.076767,-9.753143,0.91645813,-0.08718872,-0.020950317,0.01159668
1515664107393,-0.8542328,-9.293716,1.4045868,-0.29489136,-0.1834259,0.0836792
1515664107416,-0.25125122,-9.269791,1.8687897,-0.15194702,-0.332489,0.0995636
1515664107440,-0.30867004,-9.18605,1.9669037,-0.032226562,-0.38624573,0.05923462
1515664107462,-0.59820557,-9.403793,2.148758,0.04840088,-0.293396,0.034820557
1515664107484,-0.8063812,-9.867996,1.7898254,0.21456909,-0.2836151,0.04335022
1515664107506,-1.0432739,-10.327423,1.426117,0.26463318,-0.3288269,0.054351807
1515664107530,-1.0648041,-10.29393,1.0121613,0.33551025,-0.42533875,0.09466553
1515664107554,-0.8039856,-9.580856,0.47616577,0.4503479,-0.51208496,0.12399292
1515664107578,-0.052642822,-9.762711,0.088531494,0.40881348,-0.43144226,0.17897034
1515664107604,0.095718384,-10.037888,0.7776642,0.03251648,-0.14068604,0.21806335
1515664107628,-0.1531372,-9.96611,2.3042908,0.0032043457,0.08654785,0.30969238
1515664107651,-0.8159485,-10.258026,1.4931183,0.6946869,-0.14434814,0.18508911
1515664107675,-2.0123596,-10.774887,-0.04307556,0.88160706,-0.42167664,0.23518372
1515664107701,-0.83987427,-10.444672,-1.758728,0.8107605,-0.9616852,0.4135437
1515664107724,1.1557312,-10.179062,-1.8209381,0.40393066,-1.0594177,0.33779907
1515664107748,1.8017883,-9.982849,-1.5840454,0.0716095,-0.6342468,0.13131714
1515664107773,1.7754669,-10.748566,-2.0362854,-0.4109497,0.12808228,-0.15209961
1515664107795,0.5862427,-11.047668,-2.5005035,-0.8214569,0.37487793,-0.46852112
1515664107817,-1.2849426,-11.114655,-3.6011963,-1.2588348,0.15739441,-0.6371155
1515664107839,-2.3856506,-11.05484,-3.9960175,-1.8110504,-0.3239441,-0.5503845
1515664107863,-2.2612152,-10.762909,-2.4669952,-2.3706055,-0.51208496,-0.4453125
1515664107887,-1.6988983,-10.430313,0.6699829,-2.4573517,0.17572021,-0.54914856
1515664107910,-1.5816498,-10.229324,2.720642,-2.096939,0.9845123,-0.61634827
1515664107933,-1.4787598,-9.671783,3.517456,-1.433548,1.2398529,-0.7177429
1515664107956,-1.1772614,-8.865402,3.3403778,-1.0242615,1.0798035,-0.8570404
1515664107979,1.0169525,-8.008774,0.01675415,-0.88864136,0.6216583,-1.1038208
1515664108003,7.800598,-7.1497498,-4.4267273,-1.908783,1.4890747,-2.2449036
1515664108025,5.5633087,-8.903687,-2.009964,-1.8232727,2.8879547,-3.1819916
1515664108049,1.4596252,-11.126633,-3.529419,-0.6333008,1.9362488,-3.003601
1515664108075,2.2875366,-12.569504,-6.9750824,-1.3113708,0.11709595,-2.8948822
1515664108100,4.0797577,-13.194031,-3.3212433,-2.5086517,0.517807,-3.2907104
1515664108124,1.3686981,-13.875977,-3.213562,-2.0810547,1.6552277,-3.0866852
1515664108151,4.5056915,-14.598618,-3.6993103,-1.1782074,1.5428467,-2.2156067
1515664108175,11.71286,-14.335403,-7.0085754,-0.9094238,-0.26164246,-2.7030487
1515664108199,7.6402893,-11.578873,-7.750351,-0.25212097,-0.6073761,-2.6248627
1515664108225,10.241287,-6.3625183,-7.133011,0.4503479,-2.701416,-1.7989807
1515664108250,7.582855,-2.2085724,-2.5794678,0.5395355,-3.5676117,0.093444824
1515664108277,3.1585236,-3.1298065,3.4384918,1.3764038,-2.7881622,1.9541473
1515664108300,-1.9597168,-5.32164,6.644867,1.8773193,0.019348145,2.615097
1515664108322,-1.6821594,-4.577469,4.9818573,2.2181854,2.520218,3.0243683
1515664108346,1.7826538,-1.4787598,1.0695953,3.033081,3.432846,2.5332336
1515664108424,3.122635,0.117248535,-3.0795593,3.2823029,2.4420319,1.9431458
1515664108448,3.122635,0.117248535,-3.0795593,3.2823029,2.4420319,1.9431458
1515664108471,3.122635,0.117248535,-3.0795593,3.2823029,2.4420319,1.9431458
1515664108493,3.122635,0.117248535,-3.0795593,3.2823029,2.4420319,1.9431458
1515664108516,3.122635,0.117248535,-3.0795593,3.2823029,2.4420319,1.9431458
1515664108539,3.122635,0.117248535,-3.0795593,3.2823029,2.4420319,1.9431458
1515664109307,14.909683,-22.861023,3.9314117,2.1961975,2.9771423,0.59802246
1515664109330,-0.5742798,-3.8763733,4.060623,-0.42803955,8.8328705,-0.63591003
1515664109351,-1.7395782,-4.5056915,-3.7950134,-0.71759033,5.639282,1.7855377
1515664109373,-2.8546448,-11.215164,0.20817566,-1.6998596,3.161621,2.8643188
1515664109395,-5.027313,-32.626144,3.5557404,-1.0022583,0.8611145,4.0164185
1515664109418,-6.0442657,-52.3071,5.4317017,2.538269,-5.1155396,4.2693176
1515664109441,-2.514862,-44.4084,5.4317017,4.728836,-6.023285,4.0213013
1515664109464,2.165512,-32.355743,4.8694,7.795349,-6.303055,4.6236115
1515664109486,7.903488,-21.293732,-78.39844,10.612656,-11.45018,3.7232056
1515664109563,5.194824,-17.216354,5.3312073,-0.17637634,0.9014435,3.3383484
1515664109587,5.3647156,-2.5292206,-5.4604187,-0.94363403,3.5965576,0.10810852
1515664109609,13.110275,13.722839,-15.634705,-3.3565216,4.4053497,-1.202774
1515664109631,6.4534454,7.848465,-2.1176453,-2.6943665,-1.1742554,-2.0763092
1515664109654,4.244873,2.560318,-3.1178436,-4.3901215,-0.5707245,-2.5478973
1515664109677,3.8907318,-4.675583,-1.4237366,-5.5678406,-0.85905457,-3.8233795
1515664109701,6.7333984,-15.089142,-1.9381866,-6.3619843,-2.189499,-5.145294
1515664109725,14.440689,-61.28737,-3.6681976,-1.6827698,11.504791,-9.21608
1515664109749,-0.5694885,-78.39844,-7.848465,0.92193604,7.9288025,-6.2362976
1515664109773,4.9124603,-29.515472,-12.425934,0.09359741,2.099945,-2.7824707
1515664109796,1.9597168,-7.5421753,-4.62294,-1.8281555,-7.683609,-1.3774872
1515664109818,-3.4241333,-2.0817566,15.048462,-1.7927246,-8.139313,0.4294281
1515664109841,-5.5202484,0.5383911,20.374878,-0.7347107,-4.4594727,1.6389313
1515664109864,-7.3292084,5.0895386,16.701904,-0.5001373,2.4872284,1.9345856
1515664109889,-8.877365,10.78923,3.8189392,0.57618713,3.0321198,1.461792
1515664109913,-7.6378937,12.076584,-2.7828522,1.9603882,-2.482727,1.164917
1515664109936,-3.180069,10.49971,-0.6699829,3.2480927,-3.571289,1.7403412
1515664109961,10.794022,-0.1986084,-37.450073,-0.09085083,-8.483841,0.5345001
1515664109986,5.0488586,-3.1274261,15.651459,-4.893463,0.40785217,-1.7745514
1515664110074,1.3256226,-2.100891,25.119858,-3.863556,5.089508,-2.0323334
1515664110102,1.3256226,-2.100891,25.119858,-3.863556,5.089508,-2.0323334
1515664110125,1.3256226,-2.100891,25.119858,-3.863556,5.089508,-2.0323334
1515664110147,1.3256226,-2.100891,25.119858,-3.863556,5.089508,-2.0323334
1515664110169,1.3256226,-2.100891,25.119858,-3.863556,5.089508,-2.0323334
1515664110190,1.3256226,-2.100891,25.119858,-3.863556,5.089508,-2.0323334
1515664110623,1.3256226,-2.100891,25.119858,-3.863556,5.089508,-2.0323334
1515664110644,1.3256226,-2.100891,25.119858,-3.863556,5.089508,-2.0323334
1515664110665,1.3256226,-2.100891,25.119858,-3.863556,5.089508,-2.0323334
1515664110686,1.3256226,-2.100891,25.119858,-3.863556,5.089508,-2.0323334
1515664110707,1.3256226,-2.100891,25.119858,-3.863556,5.089508,-2.0323334
1515664110728,1.3256226,-2.100891,25.119858,-3.863556,5.089508,-2.0323334
1515664110988,1.3256226,-2.100891,25.119858,-3.863556,5.089508,-2.0323334
1515664111009,1.3256226,-2.100891,25.119858,-3.863556,5.089508,-2.0323334
1515664111030,1.3256226,-2.100891,25.119858,-3.863556,5.089508,-2.0323334
1515664111050,1.3256226,-2.100891,25.119858,-3.863556,5.089508,-2.0323334
1515664111072,1.3256226,-2.100891,25.119858,-3.863556,5.089508,-2.0323334
1515664111092,1.3256226,-2.100891,25.119858,-3.863556,5.089508,-2.0323334
1515664111130,1.3256226,-2.100891,25.119858,-3.863556,5.089508,-2.0323334
1515664111152,1.3256226,-2.100891,25.119858,-3.863556,5.089508,-2.0323334
1515664111174,1.3256226,-2.100891,25.119858,-3.863556,5.089508,-2.0323334
1515664111195,1.3256226,-2.100891,25.119858,-3.863556,5.089508,-2.0323334
1515664111217,1.3256226,-2.100891,25.119858,-3.863556,5.089508,-2.0323334
1515664111239,1.3256226,-2.100891,25.119858,-3.863556,5.089508,-2.0323334
1515664111387,1.3256226,-2.100891,25.119858,-3.863556,5.089508,-2.0323334
1515664111413,1.3256226,-2.100891,25.119858,-3.863556,5.089508,-2.0323334
1515664111435,1.3256226,-2.100891,25.119858,-3.863556,5.089508,-2.0323334
1515664111457,1.3256226,-2.100891,25.119858,-3.863556,5.089508,-2.0323334
1515664111479,1.3256226,-2.100891,25.119858,-3.863556,5.089508,-2.0323334
1515664111500,1.3256226,-2.100891,25.119858,-3.863556,5.089508,-2.0323334
1515664111542,1.3256226,-2.100891,25.119858,-3.863556,5.089508,-2.0323334
1515664111564,1.3256226,-2.100891,25.119858,-3.863556,5.089508,-2.0323334
1515664111586,1.3256226,-2.100891,25.119858,-3.863556,5.089508,-2.0323334
1515664111608,1.3256226,-2.100891,25.119858,-3.863556,5.089508,-2.0323334
1515664111629,1.3256226,-2.100891,25.119858,-3.863556,5.089508,-2.0323334
1515664111650,1.3256226,-2.100891,25.119858,-3.863556,5.089508,-2.0323334
1515664113206,1.3256226,-2.100891,25.119858,-3.863556,5.089508,-2.0323334
1515664113231,1.3256226,-2.100891,25.119858,-3.863556,5.089508,-2.0323334
1515664113253,1.3256226,-2.100891,25.119858,-3.863556,5.089508,-2.0323334
1515664113274,1.3256226,-2.100891,25.119858,-3.863556,5.089508,-2.0323334
1515664113297,1.3256226,-2.100891,25.119858,-3.863556,5.089508,-2.0323334
1515664113321,1.3256226,-2.100891,25.119858,-3.863556,5.089508,-2.0323334
1515664113342,1.3256226,-2.100891,25.119858,-3.863556,5.089508,-2.0323334
1515664113363,1.3256226,-2.100891,25.119858,-3.863556,5.089508,-2.0323334
1515664113385,1.3256226,-2.100891,25.119858,-3.863556,5.089508,-2.0323334
1515664113406,1.3256226,-2.100891,25.119858,-3.863556,5.089508,-2.0323334
1515664113427,2.4023895,-24.677185,-27.014969,-0.3791809,6.7742615,0.3451233
1515664113448,1.3088684,-11.26062,9.573685,-2.9765778,-10.78923,0.30358887
1515664113469,-0.6699829,-5.30011,24.435501,-2.3730469,-9.352493,1.7562256
1515664113490,-4.4482574,1.3639069,30.498917,-1.4286346,-0.5963745,2.2717896
1515664113511,-6.518051,6.9966125,17.73082,-0.53678894,5.688156,2.1215057
1515664113532,-10.246063,14.586655,-8.042282,2.6091309,1.6222534,1.5448608
1515664113553,-9.32962,13.036102,-3.8022003,3.2615356,-3.366043,1.151474
1515664113576,-5.8672028,6.7166595,-3.8285217,2.631134,-1.7533569,1.5595245
1515664113597,3.4049835,-0.2536316,-30.793228,0.2035675,-4.422821,1.4556732
1515664113621,6.1543427,-3.3595276,7.7695007,-4.3497925,0.44206238,-0.012817383
1515664113642,1.7515411,-3.7854462,17.517853,-0.90208435,9.634323,-0.2303009
1515664113663,-1.0265198,-6.809967,7.7742767,1.5181274,10.18045,0.69577026
1515664113684,-4.5511475,-13.581665,4.1683044,2.697113,8.407715,2.0616455
1515664113705,-7.0253296,-24.5719,5.206787,2.5272827,8.057083,3.2821503
1515664113727,-19.080368,-41.541794,-2.3186493,1.0929718,4.347931,5.236908
1515664113749,-7.1928253,-39.735214,-2.490921,-0.9228668,-4.734375,6.669998
1515664113772,0.7537384,-36.28476,11.593231,0.48944092,-7.9707184,5.2686768
1515664113797,7.1736755,-41.048874,9.119049,12.693253,-11.6236725,4.8423004
1515664113820,16.386047,-34.736603,-57.54738,5.0757904,1.7444153,2.5833282
1515664113843,8.307877,-23.799011,2.3042908,-0.94363403,7.165222,1.845398
1515664113869,5.560913,-4.565506,-12.827927,2.644577,1.9276886,1.6218262
1515664113891,14.199005,4.6947174,-17.21875,-0.3559723,0.5886688,-0.1508789
1515664113912,6.932007,1.861618,-4.64447,-2.6027374,1.9154816,-1.6022949
1515664113936,6.9272156,4.094116,-7.709671,-1.0609131,-1.9427185,-1.6853638
1515664113960,8.635696,9.664612,-6.9511566,-2.9863586,-0.04660034,-1.0305176
1515664113983,11.059631,4.4889374,-4.409973,-3.7743683,-1.251236,-2.3890839
1515664114007,4.800003,-5.481964,-4.23291,-6.047989,-0.13700867,-3.8807983
1515664114032,5.3192444,-11.686554,-2.9647064,-6.9581757,-1.7154694,-4.79953
1515664114055,18.809982,-34.633713,21.040085,-6.4438324,9.937317,-7.6168365
1515664114077,10.892136,-78.39844,-29.89592,1.0379944,13.257965,-10.232559
1515664114098,4.816757,-67.26703,-7.728821,-0.065200806,4.4639893,-4.6443787
1515664114119,4.163513,-22.796417,-12.39003,-0.8788605,-1.9732819,-3.2589417
1515664114141,2.3042908,-10.033112,-7.2430725,-1.988205,-8.662216,-1.7220154
1515664114162,-0.25125122,-3.8045807,20.48256,-2.2863007,-10.285889,0.4294281
1515664114183,-4.1898346,0.40678406,26.696716,-1.1390991,-5.231613,1.2064514
1515664114204,-8.803192,3.809372,22.770096,-0.97540283,1.7664185,2.1227417
1515664114225,-8.714661,7.487137,14.627319,-0.23135376,4.9441223,2.313324
1515664114249,-10.248459,16.476974,-2.3090668,2.1741943,-0.32270813,1.4239044
1515664114275,-5.71167,11.7344055,0.8877411,4.579788,-3.973236,1.811203
1515664114300,4.565506,5.481964,-22.435104,5.118561,-3.3928986,1.447113
1515664114323,11.36113,-6.8841553,-31.204803,-2.611267,-6.939575,-0.95111084
1515664114346,9.786652,-12.179474,14.732605,-9.495712,6.825592,-3.5228424
1515664114372,-7.1066895,-15.182465,18.32663,-2.8226318,14.695938,-2.8093414
1515664114396,-8.030319,-24.78247,7.4560394,2.1167755,11.639191,1.4654388
1515664114419,-9.810577,-30.999023,0.25842285,2.3183746,8.956268,4.2742004
1515664114446,-5.0440674,-33.604797,-14.892929,-1.3761139,0.079208374,6.920456
1515664114470,0.33499146,-30.329025,-5.493927,-3.6619568,-8.606018,6.62236
1515664114493,12.351746,-29.304901,10.320251,0.06550598,-13.951065,7.5190887
1515664114517,12.863815,-32.329422,29.886353,10.319443,-10.481354,4.490448
1515664114540,11.909073,-57.1071,10.473389,14.518509,0.76460266,2.9828339
1515664114565,23.933014,-23.397018,-62.46942,-1.5691528,18.121658,2.9070892
1515664114590,4.445862,-10.88974,-10.9328,0.7875519,-4.6916046,0.8460388
1515664114618,7.183258,-0.06939697,2.926422,-1.1952972,-0.747879,1.6255035
1515664114643,12.04068,7.5062866,-1.8161469,-0.7273865,-0.43388367,0.58825684
1515664114668,11.947357,17.48436,-8.042282,-1.0547943,1.1799927,-1.1160278
1515664114696,6.0107727,6.4414825,-6.611374,-2.490326,0.10853577,-2.5271301
1515664114721,2.3162537,-2.1607208,-4.4650116,-3.8940887,-0.72099304,-2.911972
1515664114746,3.6275177,-7.410568,-3.1058807,-5.15979,-1.2329102,-3.3579102
1515664114772,8.425125,-17.082367,0.76330566,-6.135971,-1.3123169,-4.821533
1515664114797,16.345367,-34.679184,8.329422,-4.011383,8.059525,-8.205719
1515664114820,14.909683,-61.713287,-3.3020935,-0.2594452,9.490173,-8.52948
1515664114848,2.9981995,-55.00621,-22.712677,1.556015,4.3356934,-4.302292
1515664114875,-0.39720154,-16.881363,-11.339584,-1.2099457,-3.0435028,-2.681076
1515664114898,-0.3062744,-8.149948,2.6081696,-1.5300598,-7.976822,-1.1991272
1515664114921,-2.0530396,-2.9288177,11.519043,-1.135437,-7.8314514,0.5699158
1515664114944,-5.826523,1.6773682,22.528427,0.059387207,-2.7307434,1.811203
1515664114968,-5.099106,4.484146,13.356735,0.47235107,1.8922424,2.1667175
1515664114991,-6.4008026,8.0686035,5.1110687,1.0893097,0.5898895,1.9297028
1515664115019,-5.7308044,6.9056854,9.657425,3.132019,-0.5487366,1.5986176
1515664115047,-2.342575,1.2179413,2.5100708,4.890106,0.98939514,1.8136444
1515664115072,7.034897,-4.175476,-39.986465,0.59085083,-5.4527435,0.7128601
1515664115099,5.8576355,-5.694916,-5.3766785,-2.6833649,-5.9243317,-0.45996094
1515664115123,-3.1944122,-3.8931274,11.152954,-2.665039,2.0632935,-1.0952606
1515664115148,-3.5605164,-8.099701,15.2686,0.9170532,6.157303,-0.5247345
1515664115174,-4.6037903,-17.843277,4.2807617,2.6995544,8.091293,0.7983856
1515664115200,-6.8195496,-37.26822,-0.37088013,0.19621277,8.094955,2.7617035
1515664115225,-3.6873474,-45.82016,-1.8233337,-0.8043518,-3.2108765,5.780594
1515664115247,15.692139,-41.068024,10.380066,3.5950775,-15.208221,6.098236
1515664115269,11.952148,-29.742783,14.0889435,8.358566,-12.0390625,3.4348602
1515664115291,10.58107,-21.406189,-78.39844,0.4185791,24.014038,5.8868713
1515664115315,5.5202484,-13.024139,-0.64367676,-4.877594,2.5568695,0.43307495
1515664115341,1.9621124,-0.6316986,19.683365,-0.7762451,-3.1864471,-0.45996094
1515664115363,5.436493,5.819351,12.067001,1.4546204,-2.6830902,-0.74586487
1515664115386,10.573883,14.6440735,-3.7567291,-0.53678894,4.9697876,-0.5064087
1515664115411,9.166901,18.994232,-21.004196,-0.15316772,3.161621,-0.6371155
1515664115436,5.087143,2.1511536,-6.271591,-2.1653595,-1.212143,-0.9230194
1515664115462,4.646866,-1.9262238,1.5792694,-2.787201,-1.4454803,-1.265091
1515664115485,5.5010986,-4.965103,0.33021545,-2.485443,-2.3568878,-1.7623291
1515664115507,10.844269,-13.840088,-5.723633,-2.9509125,-4.1992493,-2.898529
1515664115529,29.64708,-53.30252,14.565109,-6.9325256,5.8469696,-7.2674255
1515664115553,5.0201416,-78.39844,-24.92125,1.3874054,11.380173,-10.32663
1515664115575,-14.057831,-53.989258,-17.623138,0.32817078,2.3772736,-5.6816254
1515664115599,-11.167297,-24.253647,-1.4787598,-1.0670166,-0.65501404,-3.0292664
1515664115622,-11.727219,-10.186249,0.3134613,-0.9656067,-1.8657532,-1.3249512
1515664115645,-13.835297,-4.197006,0.9379883,-0.096969604,-5.9121094,0.12277222
1515664115669,-8.365311,1.9669037,10.346573,0.02029419,-5.9292145,1.5216522
1515664115692,-3.9768677,5.4340973,8.525635,0.11682129,-2.986084,1.304184
1515664115715,-2.3784637,4.3142548,2.6536407,0.4210205,-1.7215881,1.097702
1515664115739,-0.5120697,2.995819,-3.7950134,1.6623077,-2.250595,1.3982544
1515664115761,1.8951111,2.0865479,-4.220932,3.287201,-4.584091,1.5778503
1515664115783,3.1824493,1.7754669,-2.6871338,2.7496338,-3.8706055,1.2785187
1515664115805,4.89093,1.4380798,-2.7134552,1.6879578,-2.2005005,0.6859741
1515664115828,5.469986,-0.4283142,-3.0723877,0.16567993,-0.39967346,-0.1301117
1515664115852,4.3166504,-2.5986023,-0.7680969,-0.9094238,0.43229675,-0.6920929
1515664115875,5.7308044,-3.0628204,-0.3014984,-0.6650696,0.6986389,-0.7495117
1515664115899,7.8747864,-5.0153503,0.54556274,-1.3174744,3.0858765,-1.9284973
1515664115922,0.25602722,-7.1569366,1.351944,-0.8752136,-0.0038757324,-2.6358643
1515664115946,-1.8664093,-25.49553,1.249054,0.40637207,-1.2072296,-2.6383057
1515664115969,-10.939987,-59.799026,9.444473,0.70936584,-0.9421234,-1.4947662
1515664115997,-4.72583,-37.100723,4.8143616,3.185791,1.6356964,2.0103302
1515664116018,1.1126556,-14.802002,-18.874588,3.8039856,-0.3105011,2.5442352
1515664116040,2.3473663,-8.819946,-13.734802,0.30618286,-1.6104126,2.2754517
1515664116063,1.0432739,-9.099899,2.1272125,-1.1708527,-2.2335052,2.3084412
1515664116161,2.0315094,-7.819748,5.8289185,-0.22647095,-2.198059,2.3316498
1515664116188,2.0315094,-7.819748,5.8289185,-0.22647095,-2.198059,2.3316498
1515664116211,2.0315094,-7.819748,5.8289185,-0.22647095,-2.198059,2.3316498
1515664116241,2.0315094,-7.819748,5.8289185,-0.22647095,-2.198059,2.3316498
1515664116264,2.0315094,-7.819748,5.8289185,-0.22647095,-2.198059,2.3316498
1515664119307,2.8378906,-9.657425,0.5359955,-0.22647095,-2.198059,2.3316498
1515664119334,3.1704865,-14.878571,2.802002,0.13635254,-2.172409,-0.061691284
1515664119355,1.1605225,-0.727417,-4.3668976,-2.6601562,-1.573761,-1.6621552
1515664119376,2.153534,-3.0723877,-0.80158997,-3.5837708,-2.0135803,-2.1276245
1515664119398,2.950348,-6.5036926,0.66760254,-3.6460724,-2.8125916,-2.558899
1515664119419,5.728424,-15.49353,2.1726837,-3.7132874,-2.7429504,-3.4312134
1515664119441,7.491928,-32.640503,1.0408783,-1.9857635,3.056549,-5.1342926
1515664119462,2.725418,-52.31189,-11.741577,-1.3186951,5.2886353,-5.2088165
1515664119484,-2.5531464,-50.98387,-8.291138,-1.6155701,3.919098,-3.218628
1515664119526,3.6107635,-26.373688,-6.702301,-1.0267029,0.7707062,-2.3218842
1515664119547,3.6107635,-26.373688,-6.702301,-1.0267029,0.7707062,-2.3218842
1515664119568,3.6107635,-26.373688,-6.702301,-1.0267029,0.7707062,-2.3218842
1515664119590,3.6107635,-26.373688,-6.702301,-1.0267029,0.7707062,-2.3218842
1515664119614,3.6107635,-26.373688,-6.702301,-1.0267029,0.7707062,-2.3218842
1515664119636,3.6107635,-26.373688,-6.702301,-1.0267029,0.7707062,-2.3218842
1515664124494,3.6107635,-26.373688,-6.702301,-1.0267029,0.7707062,-2.3218842
1515664124526,3.6107635,-26.373688,-6.702301,-1.0267029,0.7707062,-2.3218842
1515664124548,3.6107635,-26.373688,-6.702301,-1.0267029,0.7707062,-2.3218842
1515664124570,3.6107635,-26.373688,-6.702301,-1.0267029,0.7707062,-2.3218842
1515664124592,3.6107635,-26.373688,-6.702301,-1.0267029,0.7707062,-2.3218842
1515664124613,3.6107635,-26.373688,-6.702301,-1.0267029,0.7707062,-2.3218842
1515664124634,3.6107635,-26.373688,-6.702301,-1.0267029,0.7707062,-2.3218842
1515664124655,3.6107635,-26.373688,-6.702301,-1.0267029,0.7707062,-2.3218842
1515664124676,3.6107635,-26.373688,-6.702301,-1.0267029,0.7707062,-2.3218842
1515664124699,-2.909668,-22.999817,2.486145,-1.0267029,0.7707062,-2.3218842
1515664124723,-3.8117676,-1.4021912,2.548355,0.1717987,-1.7472382,-0.31336975
1515664124745,-1.9333954,-0.1483612,2.9120636,1.0550995,0.96006775,1.9358215
1515664124767,-0.33738708,1.0217285,-0.33738708,1.0331116,0.4151764,2.2656708
1515664124789,1.5936127,1.7658997,0.62931824,0.9207001,-1.368515,2.1740417
1515664124811,4.639679,1.9716797,0.35891724,0.935379,-2.1687317,1.3738098
1515664124835,9.353546,0.18424988,-2.847458,-0.62841797,0.40419006,-0.6688843
1515664124859,2.8163452,-2.806778,4.3740845,-0.84832764,4.010727,-2.318222
1515664124883,0.3254242,-3.4504547,1.9477539,0.3831482,3.4804993,-1.9675903
1515664124908,14.043472,-9.482758,8.420349,0.21456909,9.462051,-2.5735626
1515664124930,-3.7926178,-17.089539,-10.631317,1.8944397,3.1897278,-2.6371002
1515664124954,-5.34317,-23.3013,-6.752548,-1.4494324,-0.7295532,-1.0072937
1515664124978,-7.8508453,-30.3721,-0.1483612,-3.2746735,-2.036789,1.5033264
1515664125001,-1.4715881,-24.437897,2.4071808,-0.7457123,-6.132019,3.6804352
1515664125026,0.6149597,-22.303497,5.065613,1.191925,-6.932251,4.2986298
1515664125051,2.967102,-23.102707,2.6440735,3.6512604,-6.0074005,4.600403
1515664125076,5.6614227,-23.949768,2.926422,4.4148407,-5.5126038,3.7500763
1515664125098,4.634903,-24.318253,5.268997,5.803955,1.3168182,2.3597565
1515664125122,2.4430695,-17.048859,-22.679169,3.3336182,8.154816,2.0140076
1515664125148,1.758728,-9.128616,-15.524628,-0.3901825,0.015686035,1.2149963
1515664125172,0.92362976,-5.6614227,0.830307,-0.7457123,-0.93356323,1.579071
1515664125194,3.0149536,-1.3543396,0.98583984,-0.49769592,-1.2341156,1.989563
1515664125216,7.441681,6.3433685,2.9742737,0.28907776,-0.9445648,1.6816864
1515664125238,12.447464,10.669601,-3.1202393,0.6580353,-0.049041748,0.3829956
1515664125260,11.243881,8.154739,-10.566711,-0.6626129,0.40664673,-1.1881256
1515664125281,1.9381866,0.7465668,-8.642868,-2.2765198,0.26002502,-1.1575623
1515664125304,0.3014984,-1.8400879,-4.0917206,-3.1781616,-0.05027771,-1.0744934
1515664125327,0.96191406,-3.9505463,-1.282547,-3.6595154,0.048675537,-1.4837799
1515664125350,2.6488495,-8.003998,-1.0337067,-3.9600677,-1.3746185,-2.2461395
1515664125375,5.3312073,-16.591827,1.2873383,-4.2276154,-2.2225037,-3.3689117
1515664125402,7.3339996,-34.81317,4.3501587,-1.8452606,3.7724915,-6.0689087
1515664125427,-2.005188,-58.861053,-0.8279114,0.35383606,6.6692047,-6.542938
1515664125451,-4.508072,-46.00441,-20.700302,0.2194519,5.457245,-3.8979187
1515664125474,-2.7876434,-17.414963,-3.1920319,-0.87397766,-1.2927704,-2.0262299
1515664125499,-3.4504547,-12.332611,2.802002,-0.6601715,-2.6256714,-1.3677216
1515664125524,-1.9908295,-4.163513,2.325821,0.61283875,-2.4069824,-0.07147217
1515664125546,-4.08934,-1.2753754,-0.21534729,0.5028839,-2.2738037,0.57237244
1515664125567,-4.08934,-1.2753754,-0.21534729,0.5028839,-2.2738037,0.57237244
1515664125589,-2.7014923,0.72024536,2.8713837,0.882843,0.29911804,2.0872955
1515664125612,-0.73698425,0.90448,1.660614,1.0563202,0.74871826,2.1862793
1515664125636,0.65802,2.2827454,0.9140625,0.92193604,0.04257202,2.0921936
1515664125660,3.735199,3.0341034,1.409378,0.89138794,-1.0740814,1.3860474
1515664125688,11.330017,1.5720825,-12.153152,-0.19593811,-1.0044403,-0.35734558
1515664125712,11.265411,-4.0343018,3.6227264,-2.0089722,3.0785522,-3.4116516
1515664125735,1.696518,-6.2907257,3.7543335,0.96958923,3.6417694,-3.6254578
1515664125760,3.6562347,-8.092529,-1.4117584,1.8455505,0.18551636,-1.9260559
1515664125784,-3.9385834,-16.321442,-8.530411,0.30740356,4.709549,-1.6829224
1515664125808,-6.168701,-21.327225,-4.9483643,0.39048767,-0.92259216,-0.07757568
1515664125831,-7.9250336,-27.979279,-0.035888672,-1.201416,-1.3892822,1.7171326
1515664125856,-5.654236,-25.596024,0.71066284,-1.3651276,-1.8999634,3.4434204
1515664125879,-4.2544403,-20.75534,1.763504,-0.3755188,-3.291504,4.163025
1515664125902,-0.59580994,-22.439896,3.1298065,1.410614,-4.85408,5.301651
1515664125927,6.0514526,-23.349167,1.9046936,3.8222961,-6.6976776,4.962021
1515664125950,5.4795685,-25.550568,5.6159515,5.3690186,-6.276184,3.249176
1515664125974,5.5417786,-25.406998,5.469986,7.036682,3.1029968,2.6431885
1515664125996,5.6159515,-14.761322,-37.737213,2.119217,9.513382,2.3059998
1515664126019,2.285141,-6.7405853,-13.282562,-0.89230347,-0.8920288,1.0231781
1515664126041,1.9716797,-2.6057892,1.454834,-1.0193787,-1.5224609,1.5069885
1515664126063,5.6733856,2.4023895,3.7088776,-0.35353088,-0.54507446,1.614502
1515664126084,10.7677,8.020737,0.6053772,0.41490173,-0.5438385,0.59313965
1515664126107,13.131805,9.375076,-6.477371,0.21821594,-0.34959412,-0.9339905
1515664126130,4.187439,3.9912262,-10.698303,-1.8916931,1.1738739,-1.526535
1515664126154,0.9643097,-0.6077728,-4.9746857,-3.0083313,-0.22375488,-1.4984436
1515664126178,0.83509827,-3.6275177,-0.6149597,-3.7413788,0.04989624,-1.9480286
1515664126201,1.7898254,-6.233307,-0.64367676,-4.0138245,-0.16999817,-2.5527954
1515664126225,4.1898346,-13.964508,-0.105285645,-4.133545,-1.4906921,-3.3689117
1515664126248,8.580658,-29.448471,8.779266,-2.5746307,2.743805,-5.036545
1515664126273,0.7393799,-52.395645,-1.5601196,-0.06764221,5.320404,-6.387787
1515664126296,-7.9178467,-60.232132,-13.4644165,0.72525024,6.471283,-5.158737
1515664126322,-1.3280182,-20.915665,-10.258026,-0.47080994,0.31622314,-2.4196167
1515664126346,-2.4550323,-11.1840515,2.0985107,-0.614975,-2.3813324,-1.2919617
1515664126370,-2.0410767,-6.3098755,2.725418,0.082611084,-2.6159058,-0.5430603
1515664126394,-2.892929,-2.7397766,2.3521423,0.14491272,-2.2395935,0.026260376
1515664126418,-3.5772705,-0.79441833,4.811966,0.31228638,-0.14801025,0.6652069
1515664126441,-4.4027863,-0.2416687,3.8620148,1.1039734,1.1152344,1.1441193
1515664126465,-4.0773773,-0.3134613,1.4907227,1.3226624,1.1604309,1.97612
1515664126491,-1.0480499,0.89730835,1.421341,1.1638336,-0.46076965,2.7482605
1515664126515,1.4380798,1.0504456,2.5363922,1.4069672,-1.7179413,2.3499756
1515664126538,3.0795593,0.72262573,0.5790558,1.332428,-1.5713196,1.3054047
1515664126564,8.243271,0.102890015,-0.16989136,-1.5325012,2.545868,-1.0280762
1515664126590,2.6488495,-1.306488,3.8739777,-0.59176636,4.189102,-2.2473602
1515664126614,2.4263153,-6.08255,3.4719849,1.2236938,2.9453735,-2.06044
1515664126641,1.6654053,-15.876373,-8.3437805,2.761856,6.05101,-2.811798
1515664126664,-3.4528503,-25.92862,-10.207779,-0.6894989,1.6711121,-1.4263458
1515664126688,-5.469986,-33.829727,-4.5176544,-3.168396,-2.1662903,1.317627
1515664126711,-1.1413727,-24.268005,-0.1603241,-1.0609131,-6.119812,2.8936462
1515664126736,1.8496552,-20.32225,3.591629,-0.1275177,-7.128937,3.9504395
1515664126760,4.5272217,-20.934814,6.0466614,2.0960083,-8.246826,3.886917
1515664126783,3.653839,-23.562119,17.051254,4.942642,-5.4454193,2.9180908
1515664126806,4.864609,-25.86641,7.4488525,5.887024,1.9985504,2.400055
1515664126830,3.2494507,-17.108688,5.7379913,4.964615,5.431595,1.9797974
1515664126853,-0.58384705,-9.164505,-40.063034,-1.1317596,3.4267426,2.4587097
1515664126876,3.6969147,-7.6713867,3.156128,-2.0370636,-1.3929443,1.6303864
1515664126900,5.0153503,-2.4526367,5.87677,-1.1525269,-1.5676575,1.7440033
1515664126923,10.363312,5.4508514,4.278366,0.23654175,-1.303772,1.111145
1515664126946,10.853836,8.769699,0.2632141,0.57862854,-1.363617,0.105667114
1515664126972,7.8675995,9.745972,-6.278763,-0.53556824,2.123169,-0.42210388
1515664126993,2.5363922,1.7371826,-9.073578,-1.497055,1.5184021,-0.89733887
1515664127015,1.426117,-1.4620209,-5.1015015,-2.6491547,-0.17245483,-1.2773132
1515664127039,2.0171509,-3.7184448,0.23449707,-3.2416992,-1.3123169,-1.8674011
1515664127062,3.2063751,-10.794022,0.5670929,-3.3931732,-1.9989319,-2.8069
1515664127137,3.460022,-11.69133,0.5120697,-3.426178,-2.0135803,-2.886322
1515664127160,3.460022,-11.69133,0.5120697,-3.426178,-2.0135803,-2.886322
1515664127183,3.460022,-11.69133,0.5120697,-3.426178,-2.0135803,-2.886322
1515664127207,3.460022,-11.69133,0.5120697,-3.426178,-2.0135803,-2.886322
1515664127230,3.460022,-11.69133,0.5120697,-3.426178,-2.0135803,-2.886322
1515664127254,3.460022,-11.69133,0.5120697,-3.426178,-2.0135803,-2.886322
1515664130364,3.460022,-11.69133,0.5120697,-3.426178,-2.0135803,-2.886322
1515664130388,0.1651001,-13.232315,2.6536407,-3.426178,-2.0135803,-2.886322
1515664130413,-2.4837494,-9.956543,1.426117,-3.426178,-2.0135803,-2.886322
1515664130434,0.85902405,-8.310272,0.9690857,2.5321655,5.8543243,-0.45751953
1515664130455,-0.5120697,-17.015366,0.46180725,2.4222107,2.7926636,-0.37322998
1515664130477,-4.7042847,-28.187454,-4.204193,-0.012664795,2.3125305,0.22906494
1515664130498,-9.241089,-33.38945,-2.3784637,-2.2435455,1.4512177,1.4556732
1515664130520,-6.833908,-24.382858,-2.5627136,1.8272247,-4.6964874,2.277893
1515664130541,-4.816757,-20.573486,-2.3114624,1.2236938,-0.9421234,4.237549
1515664130563,0.3397827,-19.554153,-3.826126,-0.72494507,-0.5340729,5.090317
1515664130606,1.2681885,-20.422745,0.5814514,-1.2649384,-1.5517731,5.420166
1515664130627,1.2681885,-20.422745,0.5814514,-1.2649384,-1.5517731,5.420166
1515664130648,1.2681885,-20.422745,0.5814514,-1.2649384,-1.5517731,5.420166
1515664130670,1.2681885,-20.422745,0.5814514,-1.2649384,-1.5517731,5.420166
1515664130691,1.2681885,-20.422745,0.5814514,-1.2649384,-1.5517731,5.420166
1515664130712,1.2681885,-20.422745,0.5814514,-1.2649384,-1.5517731,5.420166
1515664130894,1.2681885,-20.422745,0.5814514,-1.2649384,-1.5517731,5.420166
1515664130917,1.2681885,-20.422745,0.5814514,-1.2649384,-1.5517731,5.420166
1515664130938,1.2681885,-20.422745,0.5814514,-1.2649384,-1.5517731,5.420166
1515664130959,1.2681885,-20.422745,0.5814514,-1.2649384,-1.5517731,5.420166
1515664130980,1.2681885,-20.422745,0.5814514,-1.2649384,-1.5517731,5.420166
1515664131001,1.2681885,-20.422745,0.5814514,-1.2649384,-1.5517731,5.420166
1515664131022,1.2681885,-20.422745,0.5814514,-1.2649384,-1.5517731,5.420166
1515664131045,1.2681885,-20.422745,0.5814514,-1.2649384,-1.5517731,5.420166
1515664131070,1.2681885,-20.422745,0.5814514,-1.2649384,-1.5517731,5.420166
1515664131094,1.2681885,-20.422745,0.5814514,-1.2649384,-1.5517731,5.420166
1515664131118,-3.0317078,4.261612,2.967102,0.53097534,-2.2567139,0.80326843
1515664131142,-0.89730835,4.3668976,0.9786682,0.88772583,-0.78575134,1.7672119
1515664131164,2.8618164,2.773285,-6.6831512,0.61894226,-1.6006317,1.282196
1515664131187,7.6737823,-0.825531,-6.003586,-1.563034,-0.53163147,-0.17652893
1515664131209,4.5702972,-4.754532,12.667603,-0.31687927,4.587387,-1.6511536
1515664131231,-1.174881,-3.974472,2.6033936,1.7050476,5.342407,-1.3078461
1515664131254,-1.105484,-3.9361877,-0.98583984,1.8809967,4.189102,-0.72998047
1515664131278,-2.4669952,-10.68396,-2.622528,1.2774658,2.4737854,-0.55770874
1515664131302,-4.8670044,-23.157745,-3.9505463,-0.33398438,1.7737427,-0.5345001
1515664131326,-11.827728,-42.876984,-4.8670044,-2.8104248,-0.25064087,1.5937347
1515664131350,-3.5246277,-33.966125,2.6895294,-0.291214,-6.29451,5.038986
1515664131374,4.730606,-24.725037,6.7908325,4.384308,-11.942535,5.0341034
1515664131395,4.5679016,-21.757935,14.325836,7.1124268,-10.366516,3.2760468
1515664131416,2.1463623,-23.25824,3.144165,7.040329,-4.2407837,1.6230621
1515664131437,-7.487137,-17.584854,-49.77072,3.610962,6.354004,1.6413879
1515664131458,-0.9140625,-11.6362915,-15.060425,-0.8104553,5.276428,1.6682434
1515664131479,0.98583984,-8.410767,1.6654053,-1.7499542,3.8274536,1.6597137
1515664131500,3.184845,-1.8161469,3.2279205,-1.2295074,1.7224426,1.3713684
1515664131521,6.2907257,2.8737793,1.3280182,-0.100631714,-0.5523987,0.85214233
1515664131542,15.192032,8.472992,-2.1152496,1.1198578,-2.8296967,-0.42330933
1515664131563,9.693329,7.7814636,-11.97847,-0.9521637,6.173172,-0.9865265
1515664131584,8.518448,8.8701935,-17.204391,-2.2337646,2.2477722,-0.90467834
1515664131605,5.25943,0.43788147,-7.211975,-3.9857178,-1.5407867,-1.7098083
1515664131627,4.7162476,-3.8141632,-2.108078,-5.7938843,-0.5181885,-2.803238
1515664131649,5.5585327,-10.260422,-0.87098694,-5.9624786,-1.8620911,-4.0860443
1515664131673,11.430511,-24.12204,13.777878,-5.12558,3.766388,-6.3498993
1515664131702,5.0033875,-68.15956,-4.989029,1.6757507,8.675262,-8.147064
1515664131726,-0.93559265,-66.43912,-15.598816,1.0599823,5.8005524,-4.2607574
1515664131749,-1.9453583,-21.937393,-10.124039,0.009292603,-0.116241455,-2.5503387
1515664131770,-1.6630096,-9.671783,-1.9477539,-0.50990295,-3.8400726,-1.6584778
1515664131792,-2.2779694,-4.228119,3.5150604,-0.12261963,-6.0000763,-0.7104187
1515664131814,-5.1110687,-0.0023956299,8.807983,0.26831055,-4.1772614,0.80448914
1515664131837,-4.99382,1.9525452,12.107681,0.29275513,-0.2652893,1.7281189
1515664131861,-5.48674,5.367096,6.649658,0.88160706,3.3607788,2.055542
1515664131885,-4.4985046,7.137787,-4.141983,2.1094513,1.5342865,2.1056213
1515664131909,-2.1726837,5.7786713,-2.5028992,1.8565521,-1.5590973,2.142273
1515664131933,4.1204376,4.4817505,-18.044281,0.65927124,-3.7887573,1.6425934
1515664131956,9.564117,0.7010956,-2.8139648,-1.6754456,-2.3495636,0.15332031
1515664131980,6.305084,-2.4693909,11.899506,0.24142456,4.3393707,-2.004242
1515664132004,-1.0648041,-3.5772705,0.97387695,2.2291718,4.0204926,-1.4556732
1515664132028,-0.44267273,-3.739975,2.411972,2.2132874,3.5415802,-0.6823273
1515664132053,-0.9906311,-18.498917,-1.8305054,1.5755615,3.778595,-0.41722107
1515664132075,-4.9794617,-41.21158,-2.7756805,-1.3003693,3.677185,-0.48320007
1515664132097,-11.169693,-51.79982,-0.107681274,-3.1427155,2.8793945,1.7403412
1515664132121,-2.1176453,-37.02893,4.055832,0.14125061,-3.8901672,5.356659
1515664132145,6.30748,-25.057632,1.1270142,5.5828247,-11.385437,6.032257
1515664132168,8.965912,-17.580063,1.9333954,8.192429,-12.3359375,4.027405
1515664132192,1.2969055,-19.503906,-18.281158,5.52417,8.595856,2.3915253
1515664132216,4.5224304,-8.17627,-26.505295,-1.0120392,8.595856,0.8313751
1515664132240,-1.5337982,-7.2717896,-4.051056,-0.7689209,0.48971558,0.5002899
1515664132262,1.5625153,-1.0408783,2.148758,-0.6394043,-0.9213562,1.2235413
1515664132285,7.0612183,4.3980103,3.0245209,0.65927124,-0.78697205,1.3237305
1515664132308,13.021744,10.31546,-1.5840454,1.8565521,-2.1528473,-0.08123779
1515664132330,15.24707,12.619751,-12.418747,-1.2771606,5.5684204,-1.0647278
1515664132352,10.935196,3.2398834,-11.784653,-1.3296814,-1.3257446,-1.8759613
1515664132375,4.9292145,-4.0917206,-7.3459625,-4.2972565,-1.1754913,-2.6639557
1515664132401,5.2043915,-9.714859,-3.0771637,-5.4859924,-2.8590088,-3.6938782
1515664132423,9.580856,-20.25763,2.600998,-7.1780853,2.0852814,-5.7695923
1515664132445,10.222137,-52.237717,2.9599152,-1.9283447,11.192017,-9.837936
1515664132467,-6.1327972,-78.39844,-34.31787,1.0318909,4.253845,-7.15625
1515664132490,-4.9172516,-45.257843,-3.8117676,-2.0712738,3.7883606,-3.3456879
1515664132515,-3.6275177,-16.62294,-1.4955139,-1.6204681,1.4597778,-2.5051422
1515664132540,-1.2370911,-5.5633087,0.3254242,-0.93995667,-3.7814178,-1.5192108
1515664132565,-3.213562,0.107681274,7.972885,-0.87031555,-4.741699,0.020141602
1515664132588,-4.3573303,2.0626068,13.428528,-0.49769592,-2.0526733,1.2333221
1515664132610,-3.9720917,3.768692,10.497314,0.17912292,1.4622192,1.9883575
1515664132635,-2.8737793,5.264206,4.8502502,0.9146118,2.1280518,2.4171753
1515664132658,-2.1032867,4.6995087,5.2498474,2.102127,0.39440918,2.627304
1515664132683,0.6795654,2.8881378,2.6775665,3.0440674,-0.11502075,2.3805237
1515664132707,10.937592,2.0889282,-28.421951,1.0844269,0.09509277,1.3579254
1515664132731,7.7312164,-0.4737854,4.8358917,-1.1439972,3.5232544,-1.3127289
1515664132755,-1.2107697,-4.491333,-1.0145569,0.57862854,2.7279205,-1.6169434
1515664132779,7.7862396,-6.7836456,-4.9507446,2.4503021,14.363632,-1.230896
1515664132866,-2.1128693,-17.857635,-7.594818,1.695282,6.764496,-0.9413452
1515664132889,-2.1128693,-17.857635,-7.594818,1.695282,6.764496,-0.9413452
1515664132912,-2.1128693,-17.857635,-7.594818,1.695282,6.764496,-0.9413452
1515664132934,-2.1128693,-17.857635,-7.594818,1.695282,6.764496,-0.9413452
1515664132955,-2.1128693,-17.857635,-7.594818,1.695282,6.764496,-0.9413452
1515664132978,-2.1128693,-17.857635,-7.594818,1.695282,6.764496,-0.9413452
1515664135368,-2.1128693,-17.857635,-7.594818,1.695282,6.764496,-0.9413452
1515664135397,-2.1128693,-17.857635,-7.594818,1.695282,6.764496,-0.9413452
1515664135429,-2.1128693,-17.857635,-7.594818,1.695282,6.764496,-0.9413452
1515664135450,-2.1128693,-17.857635,-7.594818,1.695282,6.764496,-0.9413452
1515664135472,-2.1128693,-17.857635,-7.594818,1.695282,6.764496,-0.9413452
1515664135498,-2.1128693,-17.857635,-7.594818,1.695282,6.764496,-0.9413452
1515664135519,-2.1128693,-17.857635,-7.594818,1.695282,6.764496,-0.9413452
1515664135540,-2.1128693,-17.857635,-7.594818,1.695282,6.764496,-0.9413452
1515664135561,-2.1128693,-17.857635,-7.594818,1.695282,6.764496,-0.9413452
1515664135582,5.403,0.9714813,4.331009,1.695282,6.764496,-0.9413452
1515664135605,11.6362915,-60.181885,-6.5036926,2.753296,8.214676,-9.340698
1515664135626,6.2117615,-78.19505,-7.726425,1.0673218,5.29599,-5.1880493
1515664135647,5.0512543,-73.87363,-7.5517426,1.0331116,4.7474213,-4.525879
1515664135678,5.0512543,-73.87363,-7.5517426,1.0331116,4.7474213,-4.525879
1515664135700,5.0512543,-73.87363,-7.5517426,1.0331116,4.7474213,-4.525879
1515664135723,5.0512543,-73.87363,-7.5517426,1.0331116,4.7474213,-4.525879
1515664135747,5.0512543,-73.87363,-7.5517426,1.0331116,4.7474213,-4.525879
1515664135771,5.0512543,-73.87363,-7.5517426,1.0331116,4.7474213,-4.525879
1515664136022,5.0512543,-73.87363,-7.5517426,1.0331116,4.7474213,-4.525879
1515664136046,5.0512543,-73.87363,-7.5517426,1.0331116,4.7474213,-4.525879
1515664136068,5.0512543,-73.87363,-7.5517426,1.0331116,4.7474213,-4.525879
1515664136090,5.0512543,-73.87363,-7.5517426,1.0331116,4.7474213,-4.525879
1515664136113,5.0512543,-73.87363,-7.5517426,1.0331116,4.7474213,-4.525879
1515664136136,5.0512543,-73.87363,-7.5517426,1.0331116,4.7474213,-4.525879
1515664136158,5.0512543,-73.87363,-7.5517426,1.0331116,4.7474213,-4.525879
1515664136180,5.0512543,-73.87363,-7.5517426,1.0331116,4.7474213,-4.525879
1515664136202,5.0512543,-73.87363,-7.5517426,1.0331116,4.7474213,-4.525879
1515664136225,5.0512543,-73.87363,-7.5517426,1.0331116,4.7474213,-4.525879
1515664136257,8.894119,6.06102,-9.750748,-2.473236,-0.81996155,-2.1984863
1515664136280,5.21875,-1.8137665,-3.534195,-4.250839,-2.1345215,-3.0451508
1515664136302,3.534195,-7.515854,-1.5218353,-5.476227,-2.2982483,-3.6926727
1515664136323,4.1276245,-17.001007,1.2849426,-7.0339355,-0.2628479,-4.480667
1515664136346,12.078964,-29.6064,10.719849,-7.5446167,7.6649017,-7.120819
1515664136372,13.617554,-68.80322,1.2849426,1.1418304,13.624496,-9.648575
1515664136396,-1.282547,-64.76654,-26.79483,2.9341278,4.94046,-4.524658
1515664136420,-2.148758,-52.443497,-25.473984,1.7698059,4.64357,-4.035965
1515664136445,1.0695953,-11.23909,-2.153534,-1.4298706,-6.105133,-1.9797974
1515664136469,-1.9190369,-4.68515,8.740982,-1.134201,-7.452713,-0.62490845
1515664136493,-4.3214417,0.624527,13.028915,-0.3449707,-4.9982605,0.9596405
1515664136522,-4.615753,4.0989075,13.471588,0.15957642,-1.1033936,1.8417358
1515664136548,-4.919647,7.3579254,3.3044891,0.71180725,0.43473816,2.1190643
1515664136573,-5.6614227,9.016159,1.5481567,1.167511,-1.6311798,2.2571259
1515664136602,-2.321045,5.314453,1.3782654,2.3953247,-1.2524414,2.0396576
1515664136627,6.443878,-1.8568268,-55.343597,0.41246033,-4.471695,1.4068146
1515664136651,4.5009003,-5.8384857,1.3782654,-5.6081696,-4.80278,0.2144165
1515664136677,-0.44506836,-3.1298065,19.037292,-0.17393494,5.8616486,-0.14476013
1515664136701,1.0169525,-2.2061768,4.5104675,2.324463,7.8444977,0.29870605
1515664136724,-4.003189,-6.5898285,1.9118652,3.1161652,5.908066,0.4905243
1515664136747,-4.273575,-19.020554,2.3617096,2.604248,5.625839,6.1035156E-4
1515664136774,-9.138184,-37.940598,-3.7854462,0.5163269,5.4413605,-1.1624756
1515664136800,-7.0468597,-46.27002,-2.5842438,-0.39994812,-3.1546783,2.720169
1515664136824,5.515457,-41.66623,0.14117432,3.1540222,-13.2668915,5.3651886
1515664136848,11.155334,-27.424149,32.16432,8.815506,-14.207626,4.6749115
1515664136873,20.982666,-22.782059,-63.656265,3.7074738,18.739853,4.913162
1515664136899,5.52742,-13.548157,-15.223145,-2.1995697,-3.4149017,0.021377563
1515664136926,1.2586212,-1.557724,14.210968,-0.11407471,-2.828476,1.0696106
1515664136948,5.8121643,3.5581207,3.1872406,1.0587616,2.6228485,1.7476654
1515664136971,12.234497,10.473389,-8.934799,0.8144226,1.8812714,1.0317383
1515664136995,14.282761,13.069595,-13.143768,-0.71759033,1.0614777,-0.43675232
1515664137019,7.623535,5.1349945,-6.8004,-2.7627716,-0.9347992,-1.9199371
1515664137042,3.1968079,-2.5220337,-5.6566315,-4.1701965,-0.8944855,-2.2314758
1515664137066,3.1274261,-5.860016,-1.6582336,-5.3821564,-0.24331665,-2.8252258
1515664137092,5.326416,-11.851654,-1.9094696,-5.466446,-1.8022308,-4.026184
1515664137117,12.978668,-33.86322,13.3663025,-3.5153503,3.503708,-6.423218
1515664137142,9.504288,-66.39365,-8.161911,0.21089172,7.5708466,-7.619278
1515664137167,-6.51326,-49.887955,-14.995819,0.24266052,3.6539764,-3.4226532
1515664137194,-3.9385834,-16.823944,-3.8285217,-0.6894989,-0.28240967,-1.9529114
1515664137222,-3.1465607,-5.493927,4.0295105,-0.1934967,-2.8724518,-1.0744934
1515664137248,-5.7092743,0.5264282,3.5030975,0.70080566,-3.2854004,0.21562195
1515664137272,-5.2666016,2.6153564,3.809372,0.7728729,-1.237793,1.2980804
1515664137300,-3.974472,3.2398834,3.3308105,0.7802124,0.8696747,2.028656
1515664137326,-2.376068,2.8259277,1.4117584,0.6494751,0.31256104,2.5662231
1515664137352,-0.6053772,2.2899323,2.773285,0.6678009,-0.5523987,2.8227844
1515664137375,0.8422699,1.6797638,1.6630096,0.86083984,-0.73075867,2.62854
1515664137402,2.5914307,0.59580994,-0.17945862,0.9146118,-0.8920288,1.5949402
1515664137428,8.286346,-1.0671997,-1.4285126,-0.23014832,1.1140137,-0.012817383
1515664137455,6.541977,-2.7493591,0.9403839,0.39413452,2.8989563,-2.152069
1515664137481,16.529617,-10.58345,5.85524,1.3922882,5.693039,-4.472122
1515664137506,-2.7828522,-32.18347,-4.6731873,1.0282135,3.1335297,-4.3255005
1515664137531,-8.183456,-44.987457,-4.5702972,-1.5410461,1.2129669,-0.1985321
1515664137558,-5.6638184,-31.86522,-3.8500519,0.8779602,-2.224945,2.6444244
1515664137586,-0.68673706,-22.801208,-0.75852966,-0.5978699,-4.8760834,5.0548706
1515664137610,3.048462,-18.958328,4.3334045,1.9042053,-4.5266724,4.7323456
1515664137634,1.8592224,-18.044281,1.8281097,3.3665924,-3.4075775,3.879593
1515664137658,1.0097656,-14.249252,-2.6823578,3.0233002,0.9845123,3.6963196
1515664137681,4.244873,-10.272385,-5.0775757,1.0587616,3.8946686,3.5399475
1515664137707,6.2907257,-2.1463623,-2.1224365,0.56640625,3.314331,2.6480713
1515664137731,9.315262,4.5966187,-7.515854,0.96102905,2.1316986,1.9736786
1515664137752,11.952148,8.384445,-9.645462,0.09605408,1.2019958,1.0928192
1515664137775,6.1280212,9.492325,-8.123627,-1.1207733,0.9002075,0.033584595
1515664137799,2.4382935,0.6125641,0.086135864,-1.2185059,-0.08204651,-0.7177429
1515664137821,1.586441,-1.6342926,2.6799622,-1.3296814,-0.6648102,-0.9865265
1515664137843,3.1345978,-1.9477539,4.1324005,-1.3101349,-0.16265869,-1.3921356
1515664137868,4.3334045,-2.6416779,2.7852478,-1.2380676,1.2264099,-1.8356323
1515664137893,3.2015991,-2.3593292,-1.0552368,-1.576477,3.7162933,-1.8490753
1515664137917,4.4147644,-6.417557,-0.72502136,-0.93263245,0.96250916,-2.6627502
1515664138005,6.209381,-11.308487,-2.0075836,-0.87153625,-0.31782532,-3.4080048
1515664138030,6.209381,-11.308487,-2.0075836,-0.87153625,-0.31782532,-3.4080048
1515664138054,6.209381,-11.308487,-2.0075836,-0.87153625,-0.31782532,-3.4080048
1515664138079,6.209381,-11.308487,-2.0075836,-0.87153625,-0.31782532,-3.4080048
1515664138104,6.209381,-11.308487,-2.0075836,-0.87153625,-0.31782532,-3.4080048
1515664138132,6.209381,-11.308487,-2.0075836,-0.87153625,-0.31782532,-3.4080048
1515664140761,6.209381,-11.308487,-2.0075836,-0.87153625,-0.31782532,-3.4080048
1515664140785,5.070389,-4.6013947,13.462021,-0.87153625,-0.31782532,-3.4080048
1515664140811,1.6151581,-1.7180481,6.173477,0.7081299,4.451767,-4.039627
1515664140833,1.6821594,-1.586441,6.147156,0.76434326,4.4774323,-4.0115356
1515664140855,5.8911285,0.48095703,9.757935,0.54930115,2.545868,-1.6890411
1515664140877,0.28234863,-0.87098694,5.745163,1.8235626,-0.19442749,-1.2052155
1515664140900,1.2801666,-1.2897339,8.695511,1.2860107,-0.9897766,-0.8228302
1515664140922,1.2179413,-0.65802,7.503891,0.2170105,0.26002502,-0.41966248
1515664140943,4.010376,1.3926239,9.954147,-0.18249512,1.3070526,-0.27792358
1515664140965,3.4815521,3.2303162,8.499313,0.53341675,1.6075897,-0.5687103
1515664140986,3.4552307,4.2807617,10.023529,1.28479,0.42985535,-1.0708313
1515664141007,0.45703125,3.603592,9.475586,1.3226624,-0.9421234,-1.7769928
1515664141028,0.45703125,3.603592,9.475586,1.3226624,-0.9421234,-1.7769928
1515664141052,2.3593292,5.6327057,7.0492554,0.054504395,0.27835083,-1.3628235
1515664141075,1.586441,5.6327057,9.389435,-0.23258972,0.23805237,-1.4520264
1515664141096,1.586441,5.6327057,9.389435,-0.23258972,0.23805237,-1.4520264
1515664141119,1.586441,5.6327057,9.389435,-0.23258972,0.23805237,-1.4520264
1515664141141,1.586441,5.6327057,9.389435,-0.23258972,0.23805237,-1.4520264
1515664141162,1.586441,5.6327057,9.389435,-0.23258972,0.23805237,-1.4520264
1515664141183,1.586441,5.6327057,9.389435,-0.23258972,0.23805237,-1.4520264
1515664141205,1.586441,5.6327057,9.389435,-0.23258972,0.23805237,-1.4520264
1515664141228,1.586441,5.6327057,9.389435,-0.23258972,0.23805237,-1.4520264
1515664141251,1.586441,5.6327057,9.389435,-0.23258972,0.23805237,-1.4520264
1515664141274,1.586441,5.6327057,9.389435,-0.23258972,0.23805237,-1.4520264
1515664141297,1.586441,5.6327057,9.389435,-0.23258972,0.23805237,-1.4520264
1515664141321,1.586441,5.6327057,9.389435,-0.23258972,0.23805237,-1.4520264
1515664141342,1.586441,5.6327057,9.389435,-0.23258972,0.23805237,-1.4520264
1515664141364,2.285141,5.54895,10.559525,0.4002533,-0.29829407,-0.12399292
1515664141385,0.6628113,5.2378845,9.595215,-0.15194702,0.5569,-0.5039673
1515664141408,0.49771118,4.9076843,10.052246,0.27807617,0.079208374,-0.5186157
1515664141436,1.3926239,6.032303,7.664215,0.4295807,-0.54019165,-0.59558105
1515664141457,1.3830566,5.8336945,7.389038,0.25975037,-0.6403656,-0.67256165
1515664141479,0.7680969,4.6037903,8.037491,0.047180176,-0.87371826,-0.85214233
1515664141500,0.7346039,4.417145,9.073578,0.19012451,-0.96533203,-0.8032837
1515664141523,0.15074158,4.1156616,10.545166,0.33428955,-0.9164734,-0.69577026
1515664141545,0.7920227,4.687546,10.815552,0.50164795,-0.5536194,-0.63223267
1515664141566,0.48335266,4.656433,8.513657,0.42590332,-0.14434814,-0.7128601
1515664141586,0.17706299,4.3908234,8.181061,0.21089172,-0.20054626,-0.68844604
1515664141607,0.24645996,4.615753,8.420349,0.08016968,-0.07348633,-0.67988586
1515664141628,-0.3062744,4.256836,8.5950165,-0.13850403,0.16471863,-0.6713257
1515664141650,-0.75852966,3.974472,8.626129,-0.18249512,0.39196777,-0.61146545
1515664141673,-1.7491608,3.7662964,8.200211,-0.029785156,0.21481323,-0.43554688
1515664141695,-1.1318054,4.0821533,9.052048,0.30984497,-0.14801025,-0.23518372
1515664141716,-0.7848511,4.496109,8.73381,0.47843933,-0.08204651,-0.25106812
1515664141743,-1.5218353,4.0773773,7.578064,0.37460327,0.13298035,-0.1667633
1515664141764,-1.1030884,4.491333,7.0492554,0.24266052,0.043777466,-0.08856201
1515664141784,-0.65802,4.8263245,8.109283,0.14979553,0.00592041,-0.09590149
1515664141808,-1.0791626,4.37648,8.271988,0.25610352,0.051116943,-0.115448
1515664141829,-0.9403839,4.512863,7.791031,0.26463318,-0.019729614,-0.06047058
1515664141850,-0.8805542,4.496109,7.767105,0.20965576,0.058441162,0.02381897
1515664141873,-1.3878326,4.467407,7.10907,0.12536621,0.17816162,0.086120605
1515664141894,-0.8374939,4.792816,7.520645,0.0887146,-0.027069092,0.16186523
1515664141916,-0.4785614,4.8263245,7.5421753,0.1510315,-0.23475647,0.16308594
1515664141937,-0.15074158,4.759323,8.0733795,0.13146973,-0.23963928,0.18997192
1515664141959,-0.050247192,4.8670044,8.204987,0.059387207,0.087768555,0.27304077
1515664141980,0.61016846,5.201996,7.6737823,0.050842285,0.20872498,0.25227356
1515664142001,0.5670929,5.1756744,7.9130707,-0.089645386,0.2637024,0.19973755
1515664142024,0.3900299,4.9866486,9.111862,-0.1299591,0.34310913,0.20706177
1515664142045,0.5623169,5.1756744,8.614166,0.030075073,0.36019897,0.20950317
1515664142065,0.8231354,5.391037,8.140381,0.08627319,0.36265564,0.15576172
1515664142087,0.74894714,5.5944214,7.922638,0.054504395,0.33454895,0.06047058
1515664142108,0.34457397,5.5992126,7.5876465,0.16812134,0.16963196,-0.017700195
1515664142129,0.33021545,5.6231384,6.879364,0.19989014,0.07066345,-0.06535339
1515664142150,0.30389404,5.694916,6.16391,0.06428528,0.09265137,-0.1337738
1515664142175,0.3014984,5.900696,6.2069855,-0.24479675,-0.079589844,-0.28527832
1515664142198,-0.021530151,5.5992126,6.168701,-0.4427185,-0.17245483,-0.3976593
1515664142223,-0.39720154,4.170685,7.4249268,-0.6296387,-0.15167236,-0.43919373
1515664142245,-0.20817566,4.515259,8.269592,-0.7432709,0.029129028,-0.48072815
1515664142266,-0.70588684,4.790436,9.054443,-0.7310333,0.20748901,-0.5430603
1515664142288,-0.5264282,4.5056915,8.535202,-0.54167175,0.41641235,-0.58091736
1515664142309,-1.557724,3.952942,8.291138,-0.43659973,0.19284058,-0.4453125
1515664142330,-1.8089752,3.3020935,8.353348,-0.47080994,-0.05393982,-0.18508911
1515664142352,-1.174881,3.8620148,8.772095,-0.5001373,-0.11868286,0.050689697
1515664142374,-0.6915283,3.9314117,9.0711975,-0.53434753,0.18060303,0.12033081
1515664142397,-0.6915283,3.9314117,9.0711975,-0.53434753,0.18060303,0.12033081
1515664142420,-0.6915283,3.9314117,9.0711975,-0.53434753,0.18060303,0.12033081
1515664142442,-0.24645996,4.5607147,8.781662,-1.472641,0.92829895,0.45507812
1515664142464,-0.34457397,4.1036835,10.19104,-1.1867371,0.9332123,0.18997192
1515664142488,-1.1916199,3.7471619,8.377274,-0.83610535,0.50315857,0.031143188
1515664142509,-0.67237854,4.1515503,8.5950165,-0.86421204,-0.2628479,-0.08001709
1515664142531,-0.9188385,3.2207336,9.035294,-0.9766083,-0.67578125,-0.29748535
1515664142552,-1.2945099,2.5411835,10.896912,-0.86299133,-0.46444702,-0.22906494
1515664142575,-1.4739838,2.251648,10.636093,-0.6956177,0.002243042,-0.056793213
1515664142598,-1.311264,2.6679993,11.026123,-0.59054565,0.33088684,0.12033081
1515664142622,-1.3686981,2.4047852,11.143372,-0.1104126,0.300354,0.0066986084
1515664142651,-2.038681,2.033905,8.484955,0.40148926,-0.13700867,0.06413269
1515664142672,-2.0434723,2.691925,8.341385,0.62506104,-0.7955322,0.16796875
1515664142694,-0.8039856,3.4121704,10.080963,0.63604736,-0.83950806,0.061691284
1515664142716,-0.6460571,2.6990967,9.231506,0.41001892,-0.31906128,-0.027496338
1515664142737,-1.2107697,3.2566376,9.475586,0.31106567,-0.3605957,0.021377563
1515664142762,-0.73220825,3.1250305,9.305695,0.21089172,0.21725464,0.0066986084
1515664142783,-0.8542328,3.282959,8.3437805,0.09605408,0.32844543,0.01159668
1515664142804,-0.9140625,3.3930206,10.085754,0.055740356,0.2001648,0.07267761
1515664142826,-0.45224,3.591629,11.519043,0.65315247,0.03767395,0.005493164
1515664142848,-0.7465668,3.4289093,8.726624,1.1748352,0.07310486,-0.058029175
1515664142871,-1.138977,3.1417694,8.382065,0.9683533,-0.0038757324,0.05923462
1515664142892,-0.74894714,3.9601288,7.8221436,0.9524689,0.06700134,0.1826477
1515664142916,-1.3926239,4.3046875,8.678772,0.7655487,0.07066345,-0.03237915
1515664142937,-1.6725769,3.7950134,8.166702,0.6238251,0.27713013,-0.042144775
1515664142961,-1.4189453,3.0245209,6.891327,0.44911194,0.5911255,0.11299133
1515664142982,-1.0959167,3.2638092,5.6661987,0.23777771,0.42741394,0.12277222
1515664143003,0.086135864,3.3212433,6.3720856,0.031295776,0.465271,-0.031143188
1515664143024,-0.59103394,3.460022,6.2931213,-0.17025757,0.6461029,-0.16552734
1515664143045,-1.7060852,4.792816,8.767303,-0.41827393,0.71084595,-0.17041016
1515664143067,-3.3595276,4.445862,7.554138,-0.5819855,0.77926636,0.06291199
1515664143088,-2.8737793,4.3501587,8.530411,-0.45980835,0.29911804,0.34268188
1515664143109,-1.7228394,3.6107635,9.702896,-0.22402954,0.16227722,0.24861145
1515664143130,-1.6366882,4.2544403,11.535797,0.27807617,-0.020950317,0.14964294
1515664143151,-0.8446655,4.1898346,9.504288,0.56640625,0.4628296,-0.18873596
1515664143171,-1.9333954,3.625122,8.544769,0.30007935,0.6937561,-0.27427673
1515664143192,-2.646469,5.0847473,8.772095,0.038619995,1.1384583,-0.27671814
1515664143213,-3.4049835,5.079956,8.286346,-0.18125916,1.4951935,-0.30969238
1515664143234,-3.775879,4.4147644,8.202591,-0.33764648,1.7847443,-0.07879639
1515664143255,-3.4624176,4.472183,8.848663,-0.1617279,1.4817505,0.058029175
1515664143276,-4.0462646,4.4769745,8.195419,0.08505249,1.0981293,0.0848999
1515664143297,-3.9026947,4.364502,8.126022,0.038619995,0.88920593,0.17285156
1515664143318,-3.081955,4.7042847,9.530609,0.045959473,0.70961,0.12399292
1515664143339,-3.0053864,5.001007,9.583252,0.32939148,1.0321655,-0.070236206
1515664143360,-3.9266205,4.060623,3.8931274,0.11682129,1.5208435,-0.1484375
1515664143381,-5.4963074,4.019943,5.9605255,-0.45004272,0.7878113,0.114227295
1515664143402,-4.960327,3.7304077,9.054443,0.026412964,0.32600403,0.32313538
1515664143423,-3.866806,4.2305145,7.446457,0.31840515,0.12564087,0.4318695
1515664143444,-3.0963135,4.9794617,7.5350037,0.25854492,0.14151001,0.26203918
1515664143465,-3.9912262,5.1302185,4.936386,-0.05909729,0.2551422,-0.04458618
1515664143499,-4.113266,4.833496,4.524826,-0.21670532,0.26002502,-0.028701782
