time,accel x,accel y,accel z,gyro x,gyro y,gyro z
1515627134.084,-0.025324,0.033789,0.043406,0.320148,-0.042234,-0.077783
1515627134.094,-0.013378,0.039354,0.032365,0.324496,-0.029455,-0.078752
1515627134.104,-0.02024,0.05914,0.057022,0.267223,-0.003463,-0.083612
1515627134.114,-0.025762,0.065397,0.081443,0.180808,-0.014669,-0.075106
1515627134.124,-0.021949,0.057636,0.098331,0.074399,-0.117573,-0.044791
1515627134.134,-0.002735,0.042818,0.056169,-0.010313,-0.168315,-0.021491
1515627134.144,0.013604,0.032139,0.02329,-0.064404,-0.172451,0.043868
1515627134.154,0.033572,0.022986,0.044292,-0.081587,-0.150009,0.066101
1515627134.164,0.030196,0.019463,0.035176,-0.08905,-0.118006,0.082095
1515627134.174,0.041787,0.025433,0.026909,-0.081715,-0.09891,0.100352
1515627134.184,0.053703,0.030443,0.011337,-0.076408,-0.094688,0.103625
1515627134.194,0.055637,0.030717,-0.011287,-0.062691,-0.115048,0.10372
1515627134.204,0.061478,0.032436,-0.030722,-0.043511,-0.132212,0.094308
1515627134.214,0.0596,0.038112,-0.040575,-0.006131,-0.154792,0.074447
1515627134.224,0.055353,0.047247,-0.044051,0.061134,-0.173286,0.0507
1515627134.234,0.048767,0.054214,-0.040512,0.140351,-0.167293,0.019726
1515627134.244,0.036114,0.055947,-0.028018,0.214306,-0.162315,-0.016638
1515627134.254,0.023051,0.059588,-0.017197,0.282679,-0.187196,-0.046783
1515627134.264,0.012967,0.05941,-0.018407,0.35951,-0.221734,-0.07686
1515627134.274,0.003951,0.059134,-0.017395,0.430009,-0.240237,-0.103762
1515627134.284,-0.00407,0.057427,-0.000072,0.483563,-0.253282,-0.13511
1515627134.294,-0.012182,0.060548,0.022308,0.524391,-0.267297,-0.170873
1515627134.304,-0.021226,0.063835,0.039363,0.553765,-0.254539,-0.214138
1515627134.315,-0.032818,0.059806,0.062031,0.566401,-0.190465,-0.256363
1515627134.325,-0.04615,0.051337,0.098882,0.565398,-0.059141,-0.282548
1515627134.335,-0.055279,0.04173,0.140408,0.542747,0.103122,-0.266291
1515627134.345,-0.059758,0.025087,0.177549,0.52842,0.271673,-0.23181
1515627134.355,-0.063764,0.013799,0.193136,0.556774,0.438907,-0.205339
1515627134.365,-0.061478,0.022426,0.197174,0.630997,0.615456,-0.181478
1515627134.375,-0.065462,0.026617,0.196529,0.738162,0.800297,-0.148674
1515627134.385,-0.071757,0.027283,0.198204,0.898693,1.001872,-0.118365
1515627134.395,-0.080325,0.042794,0.205068,1.124609,1.246815,-0.10203
1515627134.405,-0.094605,0.057827,0.226254,1.389282,1.521446,-0.10536
1515627134.415,-0.111436,0.07791,0.255591,1.640319,1.784501,-0.130192
1515627134.425,-0.121289,0.08882,0.284887,1.748325,1.823341,-0.148993
1515627134.435,-0.097108,0.071748,0.272635,1.622946,1.571478,-0.204609
1515627134.445,-0.080246,0.069986,0.19448,1.312626,1.258041,-0.313776
1515627134.455,-0.09207,0.102599,0.164461,0.930471,0.94841,-0.465326
1515627134.465,-0.130909,0.11019,0.194586,0.586241,0.702622,-0.638564
1515627134.475,-0.170409,0.119969,0.232654,0.368387,0.577649,-0.813063
1515627134.485,-0.209612,0.135281,0.27604,0.323624,0.591265,-0.970096
1515627134.495,-0.245392,0.140028,0.321446,0.434424,0.72428,-1.080123
1515627134.505,-0.267584,0.135397,0.359436,0.632029,0.94048,-1.02802
1515627134.515,-0.249257,0.108704,0.389921,0.822493,1.280882,-0.77431
1515627134.525,-0.226465,0.044225,0.419903,0.959511,1.727033,-0.453792
1515627134.535,-0.225717,-0.001809,0.454742,1.081759,2.239637,-0.196054
1515627134.545,-0.243275,0.0104,0.472313,1.208559,2.750436,-0.045823
1515627134.555,-0.270951,0.05466,0.46017,1.369011,3.18662,0.0183
1515627134.565,-0.30051,0.093406,0.415573,1.568696,3.559939,-0.018487
1515627134.575,-0.319541,0.133245,0.363198,1.762726,3.849333,-0.152535
1515627134.585,-0.322247,0.160912,0.310911,1.900732,4.014562,-0.377134
1515627134.595,-0.325942,0.189701,0.250038,1.960905,4.014087,-0.671391
1515627134.605,-0.323073,0.233023,0.179584,1.934963,3.909807,-1.024544
1515627134.615,-0.31171,0.276383,0.110527,1.839818,3.765496,-1.396771
1515627134.625,-0.271425,0.316844,0.051855,1.745334,3.612552,-1.741331
1515627134.635,-0.209128,0.358432,-0.01286,1.724289,3.497199,-1.982648
1515627134.645,-0.130911,0.371006,-0.067615,1.810318,3.457732,-2.152133
1515627134.655,-0.067116,0.350203,-0.106676,2.005501,3.392928,-2.293769
1515627134.665,0.001072,0.333471,-0.14933,2.236626,3.268171,-2.443697
1515627134.675,0.039822,0.330728,-0.195045,2.417516,3.081117,-2.691349
1515627134.685,0.038569,0.341614,-0.23352,2.490942,2.829008,-3.058722
1515627134.695,0.063512,0.369768,-0.269829,2.469755,2.49872,-3.474356
1515627134.705,0.125351,0.415982,-0.324866,2.425897,2.067021,-3.82991
1515627134.715,0.215706,0.430235,-0.382727,2.426754,1.640868,-4.015587
1515627134.725,0.344645,0.400524,-0.426248,2.530936,1.344807,-4.060073
1515627134.735,0.478504,0.348013,-0.412728,2.719128,1.179201,-4.034948
1515627134.745,0.552369,0.304929,-0.372994,2.963228,1.100448,-3.92792
1515627134.755,0.600274,0.26408,-0.328189,3.253433,1.107488,-3.722072
1515627134.765,0.639521,0.219319,-0.270448,3.568047,1.18572,-3.476285
1515627134.775,0.684888,0.174412,-0.199688,3.865485,1.37935,-3.248414
1515627134.785,0.744144,0.170558,-0.134624,4.135509,1.640615,-3.093054
1515627134.795,0.730521,0.160561,-0.069425,4.33766,1.844864,-2.985562
1515627134.805,0.695444,0.126176,-0.014506,4.399736,1.917771,-2.892983
1515627134.815,0.671866,0.120915,-0.007345,4.367971,1.857812,-2.767912
1515627134.825,0.68096,0.120356,-0.019824,4.275493,1.671984,-2.533251
1515627134.835,0.706149,0.084908,-0.034282,4.108751,1.452339,-2.251679
1515627134.845,0.676805,0.002649,-0.023191,3.82145,1.20571,-1.96313
1515627134.855,0.625951,-0.054708,0.00108,3.445542,0.880763,-1.692954
1515627134.865,0.578341,-0.063058,0.005394,3.029072,0.494267,-1.44371
1515627134.875,0.527134,-0.053173,-0.001289,2.625979,0.165364,-1.214341
1515627134.885,0.471286,-0.073259,-0.028349,0.100012,1.065106,-0.576085
1515627134.896,0.487609,-0.188394,0.39204,-0.700505,-0.191307,-0.428151
1515627134.906,0.453189,-0.284753,0.662454,-1.145167,-0.776953,-0.233173
1515627134.916,0.536033,-0.19614,0.435542,-0.944523,-0.845557,0.114036
1515627134.926,0.477235,-0.102436,0.348906,-0.46285,-0.671213,0.32915
1515627134.936,0.439565,-0.003371,0.24029,0.145097,-0.71561,0.306495
1515627134.946,0.42883,0.13422,0.189958,0.601278,-0.763951,0.160601
1515627134.956,0.374289,0.2192,0.150996,1.004094,-0.781089,0.03973
1515627134.966,0.307596,0.236816,0.141463,1.702707,-0.641186,-0.07598
1515627134.976,0.273743,0.213157,0.039212,3.748137,-0.833017,-0.266074
1515627134.986,0.27078,0.16862,-0.286886,2.381287,1.371165,-0.155705
1515627134.996,0.152559,0.136721,-0.307517,1.150166,0.497234,-0.290648
1515627135.006,-0.136794,-0.144732,0.398217,0.487283,0.479018,-0.581951
1515627135.016,0.023835,-0.188939,0.377076,0.527088,1.087674,-0.493132
1515627135.026,-0.064719,-0.026309,0.257431,1.042373,1.773876,-0.584685
1515627135.036,-0.22484,-0.052238,0.155027,1.394656,2.081601,-0.763622
1515627135.046,-0.220553,0.019045,0.133303,1.373357,2.232769,-0.942265
1515627135.056,-0.291719,0.015994,0.131457,1.283808,2.220025,-1.106317
1515627135.066,-0.310253,-0.033762,0.096266,1.354189,2.121877,-1.245309
1515627135.076,-0.271546,-0.053455,0.049991,2.093889,1.624344,-1.294553
1515627135.086,-0.208242,-0.073191,-0.064904,1.31099,2.091104,-1.211857
1515627135.096,-0.143843,-0.203706,-0.132494,0.873293,1.299695,-1.07607
1515627135.106,-0.171992,-0.363579,0.039062,0.567866,0.956518,-0.914793
1515627135.116,-0.028508,-0.34396,-0.030479,0.529916,0.687032,-0.654205
1515627135.126,-0.059612,-0.337395,-0.099423,0.454727,0.374396,-0.499639
1515627135.136,-0.064839,-0.331742,-0.133646,0.337169,0.01096,-0.386222
1515627135.146,-0.10175,-0.285774,-0.110548,0.201756,-0.247627,-0.325907
1515627135.156,-0.17299,-0.241922,-0.075616,0.172976,-0.400057,-0.311866
1515627135.166,-0.208187,-0.190599,-0.02332,0.156885,-0.375484,-0.290677
1515627135.176,-0.227973,-0.19311,0.045114,0.182884,-0.205098,-0.245055
1515627135.186,-0.227955,-0.229627,0.126911,0.287332,-0.048088,-0.179367
1515627135.196,-0.186091,-0.216592,0.163966,0.388624,0.01308,-0.161965
1515627135.206,-0.124109,-0.152206,0.09897,0.437865,0.038397,-0.17087
1515627135.216,-0.067538,-0.119295,0.053751,0.441521,0.052342,-0.200596
1515627135.226,-0.030066,-0.101695,0.021101,0.415668,0.095318,-0.240162
1515627135.236,-0.011632,-0.094211,0.011855,0.405077,0.229898,-0.264321
1515627135.246,-0.015075,-0.106608,0.032504,0.410024,0.46148,-0.292222
1515627135.256,-0.029064,-0.140261,0.079003,0.407605,0.68248,-0.331961
1515627135.266,-0.058388,-0.159464,0.101431,0.411606,0.888533,-0.381258
1515627135.276,-0.078987,-0.170868,0.105104,0.398918,1.008223,-0.415078
1515627135.286,-0.10678,-0.176791,0.091269,0.374007,1.147309,-0.483056
1515627135.296,-0.130999,-0.175716,0.052395,0.35718,1.185034,-0.565127
1515627135.306,-0.171465,-0.192544,0.033218,0.344985,1.187673,-0.693054
1515627135.316,-0.237986,-0.163252,-0.00381,0.358005,1.271806,-0.672376
1515627135.326,-0.295196,-0.199199,0.00315,0.343699,1.198276,-0.67067
1515627135.336,-0.262347,-0.18969,0.008555,0.276082,0.922675,-0.758684
1515627135.346,-0.188476,-0.189996,-0.020091,0.18125,0.573592,-0.834499
1515627135.356,-0.11052,-0.181201,-0.046492,0.079288,0.436621,-0.835129
1515627135.366,-0.022632,-0.167891,-0.039058,-0.031168,0.451762,-0.681995
1515627135.376,0.053375,-0.146438,-0.033422,-0.195134,0.531367,-0.560166
1515627135.386,0.124041,-0.162355,-0.014394,-0.421507,0.695636,-0.430279
1515627135.396,0.130379,-0.216754,0.005891,-0.610106,0.964187,-0.291061
1515627135.406,0.074589,-0.248641,-0.000539,-0.783233,1.10468,-0.173393
1515627135.416,0.034483,-0.1856,-0.060253,-0.880346,1.129746,-0.143593
1515627135.426,-0.036193,-0.159104,-0.12775,-0.799874,1.053479,-0.145016
1515627135.436,-0.072405,-0.060743,-0.190621,-0.596223,0.929741,-0.227117
1515627135.446,-0.004079,0.169492,-0.191889,0.314095,-0.177905,-0.336031
1515627135.456,0.209124,0.725639,-0.351227,-0.073364,-0.217436,-0.528251
1515627135.466,0.219823,0.474018,-0.338249,0.133457,-0.161733,-0.356252
1515627135.477,0.255036,0.127692,0.224135,0.400902,0.239533,-0.266468
1515627135.487,0.352543,0.33308,0.279239,0.581753,0.745427,-0.349884
1515627135.497,0.2035,0.202462,0.340975,0.624404,1.433913,-0.530178
1515627135.507,0.097744,0.259451,0.320549,0.526464,2.07244,-0.813501
1515627135.517,-0.021844,0.229084,0.262399,0.434441,2.527307,-1.063304
1515627135.527,-0.122801,0.16808,0.218028,0.378737,2.70311,-1.203941
1515627135.537,-0.17806,0.147642,0.070354,-0.200205,3.007631,-1.496324
1515627135.547,-0.139996,-0.011187,-0.027384,-0.983808,3.198316,-1.489125
1515627135.557,-0.17061,-0.560943,0.084859,-0.827548,2.948439,-1.086631
1515627135.567,-0.004163,-0.604471,-0.020524,-0.505194,2.492181,-0.866008
1515627135.577,0.054243,-0.149392,-0.373992,-0.351339,1.934721,-1.005568
1515627135.587,0.026662,-0.133672,-0.432742,-0.26856,1.44888,-1.047766
1515627135.597,0.091861,-0.078586,-0.352772,-0.339355,1.118142,-0.912377
1515627135.607,0.155687,0.016088,-0.241437,-0.304332,0.797204,-0.721371
1515627135.617,0.291489,0.131263,-0.167663,-0.18218,0.473249,-0.43455
1515627135.627,0.463678,0.217432,-0.143129,-0.051959,0.090537,-0.140379
1515627135.637,0.589018,0.304749,-0.137022,0.113709,-0.474476,0.042844
1515627135.647,0.647128,0.478124,-0.160926,0.154818,-1.095698,0.366009
1515627135.657,0.598538,0.508665,-0.190788,0.067142,-1.503031,0.787393
1515627135.667,0.491015,0.404031,-0.137206,-0.081998,-1.704533,1.033033
1515627135.677,0.402725,0.370348,-0.04354,-0.186609,-1.722317,1.129684
1515627135.687,0.278388,0.44434,0.082801,-0.171116,-1.605644,1.30598
1515627135.697,0.120083,0.52717,0.171916,-0.001047,-1.470186,1.30849
1515627135.707,0.010288,0.610103,0.213262,0.246729,-1.426566,1.184896
1515627135.717,-0.054819,0.697317,0.182223,0.626766,-1.563251,1.124041
1515627135.727,-0.058859,0.675343,0.118793,1.362617,-1.735478,1.113137
1515627135.737,-0.000473,0.589649,-0.077836,1.646552,-1.762176,1.210173
1515627135.747,0.069862,0.464484,-0.281911,2.345426,-2.895812,1.306283
1515627135.757,0.091115,0.26348,-0.389687,0.581278,-2.149316,0.990504
1515627135.767,0.039378,0.059854,-0.444477,-0.567828,-2.828599,1.195855
1515627135.777,-0.331924,0.100412,0.222488,-0.269826,-2.25685,0.973507
1515627135.787,-0.276527,-0.107472,0.286717,0.156325,-1.642987,0.991384
1515627135.797,-0.31168,0.008503,0.34607,0.348088,-1.410581,0.67395
1515627135.807,-0.413538,0.061411,0.296723,0.31308,-1.399622,0.334926
1515627135.817,-0.396839,0.084352,0.214711,0.265679,-1.401822,0.126691
1515627135.827,-0.354455,0.032702,0.117137,0.297126,-1.366723,0.098437
1515627135.837,-0.254316,-0.10876,0.05813,0.351513,-1.26905,0.137762
1515627135.847,-0.165,-0.240726,0.007913,0.375456,-1.183849,0.137277
1515627135.857,-0.10547,-0.299967,-0.026836,0.281507,-1.185163,0.073312
1515627135.867,-0.072128,-0.309607,-0.060652,0.146041,-1.177685,0.013138
1515627135.877,-0.090624,-0.32384,-0.061442,0.070106,-1.158897,-0.034567
1515627135.887,-0.065111,-0.327363,-0.030635,0.019346,-1.145697,-0.055366
1515627135.897,-0.059497,-0.326239,0.005254,0.046821,-1.058301,-0.081359
1515627135.907,-0.049931,-0.329835,0.085863,0.120256,-0.926415,-0.100257
1515627135.917,-0.034678,-0.314825,0.15752,0.161179,-0.789929,-0.155738
1515627135.927,-0.029979,-0.279081,0.168867,0.198628,-0.702495,-0.212493
1515627135.937,-0.019288,-0.237277,0.151694,0.194845,-0.624306,-0.296398
1515627135.947,0.00476,-0.203374,0.11675,0.227398,-0.66377,-0.363231
1515627135.957,0.034617,-0.163976,0.062725,0.265561,-0.731169,-0.382171
1515627135.967,0.058165,-0.151378,0.028736,0.316943,-0.737819,-0.407133
1515627135.977,0.043988,-0.135329,0.048048,0.386757,-0.681653,-0.428464
1515627135.987,0.013597,-0.088394,0.081778,0.418039,-0.603987,-0.423562
1515627135.997,0.002816,-0.052204,0.105488,0.360124,-0.83437,-0.332401
1515627136.007,0.058869,-0.020809,0.034708,0.180198,-1.353368,-0.160632
1515627136.017,0.143143,-0.039239,-0.08431,-0.001005,-1.716611,0.018044
1515627136.027,0.16422,-0.064088,-0.122654,-0.090646,-1.710761,0.037218
1515627136.037,0.099753,-0.033733,-0.037499,0.032048,-1.49603,0.03517
1515627136.047,-0.074763,0.072759,0.133206,0.265905,-1.005172,-0.121138
1515627136.057,-0.093921,0.125629,0.147465,0.215513,-1.030227,-0.188919
1515627136.067,-0.057255,0.178259,0.107041,0.383447,-1.017815,-0.07717
1515627136.077,-0.069962,0.172128,0.038109,0.561051,-0.966816,-0.037587
1515627136.087,0.170975,0.123968,-0.12553,0.219078,-1.148163,-0.023154
1515627136.098,0.196804,0.063026,-0.109414,0.316737,-0.793591,0.000533
1515627136.108,0.034146,0.062996,0.087163,0.849021,-0.208983,-0.052827
1515627136.118,0.021867,0.071907,0.086946,0.324029,-0.152361,-0.017418
1515627136.128,-0.119028,0.000783,0.128749,0.29111,0.200513,-0.191251
1515627136.138,-0.302204,-0.052963,0.157237,0.416003,0.619264,-0.269248
1515627136.148,-0.310022,0.014023,0.117907,0.433866,0.837229,-0.398206
1515627136.158,-0.27329,-0.005226,0.08975,0.425064,1.073463,-0.514643
1515627136.168,-0.187236,-0.020432,0.041573,0.448598,1.358592,-0.639043
1515627136.178,-0.124753,-0.045271,0.050731,0.449228,1.624552,-0.729707
1515627136.188,-0.043427,-0.070192,0.040884,0.356611,1.534329,-0.689599
1515627136.198,0.070575,-0.122964,-0.095614,0.186026,1.138267,-0.607815
1515627136.208,0.166551,-0.182529,-0.242857,0.037797,0.579587,-0.435801
1515627136.218,0.17516,-0.188402,-0.294305,-0.01171,0.198645,-0.323755
1515627136.228,0.052649,-0.16463,-0.199079,0.046373,0.124366,-0.238118
1515627136.238,-0.076567,-0.103616,-0.000757,0.126311,0.227201,-0.196338
1515627136.248,-0.136831,-0.102053,0.135812,0.176258,0.327265,-0.225212
1515627136.258,-0.131483,-0.05947,0.156103,0.190616,0.280437,-0.288029
1515627136.268,-0.111002,0.022609,0.044673,0.197991,0.174911,-0.331962
1515627136.278,-0.046607,0.064013,-0.032748,0.1977,-0.012923,-0.314505
1515627136.288,0.045296,0.095986,-0.092426,0.193123,-0.182626,-0.286389
1515627136.298,0.120167,0.10825,-0.108655,0.197935,-0.197704,-0.25337
1515627136.308,0.141627,0.09776,-0.050276,0.214505,-0.049587,-0.230301
1515627136.318,0.103437,0.075777,0.015965,0.210242,0.168025,-0.210439
1515627136.328,0.033247,0.040565,0.050468,0.15745,0.305896,-0.17972
1515627136.338,-0.023616,-0.017786,0.008272,0.063199,0.343641,-0.117896
1515627136.348,-0.059626,-0.090408,-0.062912,-0.040052,0.316339,-0.048947
1515627136.358,-0.084513,-0.138397,-0.102756,-0.142441,0.360627,-0.013821
1515627136.368,-0.109464,-0.173388,-0.092277,-0.202505,0.495675,-0.082235
1515627136.378,-0.1449,-0.144209,-0.072776,-0.268452,0.793087,-0.197021
1515627136.388,-0.175086,-0.130684,-0.012765,-0.350764,1.202907,-0.394681
1515627136.398,-0.227822,-0.113686,0.016225,-0.41927,1.573215,-0.608284
1515627136.408,-0.237701,-0.119158,0.021914,-0.453025,1.888593,-0.734335
1515627136.418,-0.218275,-0.212335,0.027938,-0.510175,1.876269,-0.767012
1515627136.428,-0.158819,-0.299382,-0.011116,-0.621087,1.383963,-0.73489
1515627136.438,-0.105507,-0.372924,-0.101636,-0.659233,0.951725,-0.619688
1515627136.448,-0.111644,-0.396142,-0.099171,-0.611716,0.769669,-0.507924
1515627136.458,-0.129643,-0.3121,0.020798,-0.555891,0.582179,-0.382235
1515627136.468,-0.150275,-0.239675,0.096007,-0.418875,0.501826,-0.227515
1515627136.478,-0.088182,-0.231246,0.117317,-0.333458,0.382819,-0.219441
1515627136.488,-0.035063,-0.130252,0.101802,-0.267505,0.330969,-0.155995
1515627136.498,-0.047727,-0.149921,0.07666,-0.151854,0.607079,0.006077
1515627136.508,-0.08723,-0.220733,0.106415,-0.088568,0.823036,0.071472
1515627136.518,-0.094955,-0.165926,0.078815,-0.039522,0.902908,0.020155
1515627136.528,-0.05362,-0.044848,-0.047474,-0.023722,0.862561,-0.069245
1515627136.538,-0.013916,0.108775,-0.138336,-0.077682,0.786301,-0.13192
1515627136.548,0.021595,0.175408,-0.147342,-0.167666,0.688458,-0.051339
1515627136.558,0.077367,0.140093,-0.136742,-0.28568,0.543278,0.201257
1515627136.568,0.139461,0.047041,-0.153895,-0.49016,0.388222,0.383559
1515627136.578,0.160901,0.058771,-0.224596,-0.553639,0.214826,0.35345
1515627136.588,0.150529,0.233068,-0.292164,-0.394868,-0.000784,0.073486
1515627136.598,0.202128,0.518964,-0.249202,-0.133282,-0.045675,-0.089646
1515627136.608,0.182227,0.625155,-0.111442,0.111216,0.11512,-0.151113
1515627136.618,0.168436,0.482844,0.130651,0.227065,0.269057,-0.145998
1515627136.628,0.150295,0.343805,0.247445,0.193864,0.391722,-0.072499
1515627136.638,0.082942,0.179993,0.221412,0.196866,0.616695,-0.034421
1515627136.648,-0.00563,0.038985,0.183472,0.119528,0.835945,-0.044185
1515627136.658,-0.0536,-0.034378,0.112061,0.040378,0.924775,0.026515
1515627136.668,-0.09957,0.024224,-0.032716,-0.037598,0.75797,-0.032499
1515627136.678,-0.052032,0.104298,-0.119661,-0.129719,0.558155,-0.083277
1515627136.688,0.005627,0.090536,-0.113919,-0.193638,0.490104,-0.028903
1515627136.699,0.027088,-0.027425,-0.025836,-0.268783,0.439296,-0.004424
1515627136.709,0.005104,-0.085841,0.038218,-0.374872,0.393209,-0.055908
1515627136.719,0.003442,0.003923,0.007201,-0.572625,0.152472,-0.108097
1515627136.729,-0.002,0.068207,-0.081325,-0.753005,-0.159382,-0.304083
1515627136.739,0.008629,0.154926,-0.131751,-0.948375,-0.539058,-0.609102
1515627136.749,0.043004,0.204448,-0.164632,-1.869302,0.395734,-1.755368
1515627136.759,-0.137934,0.176935,0.453507,-2.754703,-1.018219,-1.872026
1515627136.769,-0.09371,0.159045,0.363399,-2.210827,-2.153195,-1.393354
1515627136.779,0.193369,-0.47399,-0.996724,-2.042901,-2.561878,-1.062611
1515627136.789,0.11928,-0.502066,-0.342269,-2.093212,-3.00694,-0.917783
1515627136.799,-0.24384,-0.305241,0.011038,-1.972497,-3.243586,-0.894777
1515627136.809,-0.125013,-0.197787,-0.133329,-1.952685,-2.897295,-1.115919
1515627136.819,-0.068034,-0.270746,-0.141988,-1.765791,-2.652561,-0.961616
1515627136.829,-0.127311,-0.222724,0.063862,-1.592038,-1.952934,-0.897496
1515627136.839,-0.029827,0.020649,0.143876,-1.291513,-1.312137,-1.034385
1515627136.849,-0.103471,0.153276,0.236752,-1.13006,-0.982729,-1.266659
1515627136.859,-0.108096,0.145208,0.215332,-0.986043,-0.685549,-1.399153
1515627136.869,-0.065262,-0.065804,0.203723,-0.696893,-0.14741,-1.443883
1515627136.879,-0.02177,-0.067018,0.296667,-0.443778,0.177402,-1.435466
1515627136.889,-0.050324,-0.05826,0.368088,-0.26822,0.191431,-1.50359
1515627136.899,0.032146,0.05987,0.238262,-0.121863,0.047319,-1.443752
1515627136.909,0.105556,0.164093,0.160383,0.108651,-0.162582,-1.335207
1515627136.919,0.108856,0.187708,0.09547,0.206796,-0.497417,-1.258499
1515627136.929,0.115374,0.218626,0.081356,0.243223,-0.776453,-1.157849
1515627136.939,0.180541,0.260245,0.116226,0.237242,-0.989403,-0.956318
1515627136.949,0.125986,0.264059,0.114205,0.266858,-1.014193,-0.618471
1515627136.959,0.071744,0.29905,0.158304,0.326015,-0.998487,-0.323791
1515627136.969,0.018882,0.245507,0.179033,0.290652,-1.036437,-0.073028
1515627136.979,-0.07993,0.158997,0.147942,0.179418,-1.099257,0.104323
1515627136.989,-0.108917,0.107375,0.08689,0.071084,-1.173612,0.215645
1515627136.999,-0.066172,0.098893,0.020762,-0.115522,-1.062486,0.207391
1515627137.009,0.007568,0.099131,-0.064751,-0.300304,-0.488536,-0.059095
1515627137.019,0.146047,-0.095305,-0.201739,-0.029015,-0.390716,-0.164117
1515627137.029,0.050861,-0.288187,-0.14495,0.171944,-0.211223,-0.309106
1515627137.039,0.008148,-0.193637,0.004186,0.31275,0.080647,-0.442722
1515627137.049,0.109163,-0.119376,0.055993,0.449363,0.451389,-0.54417
1515627137.059,0.145104,-0.061421,0.117409,0.914321,1.293134,-0.790208
1515627137.069,0.219363,0.000333,0.270968,1.06181,1.266764,-0.847093
1515627137.079,0.301186,-0.019531,0.240803,0.707113,0.830087,-0.706963
1515627137.089,0.192805,-0.085861,-0.129702,0.341425,0.376347,-0.547855
1515627137.099,0.121217,-0.052638,-0.168045,0.252224,0.017674,-0.318006
1515627137.109,0.09964,-0.028767,-0.041034,0.181168,-0.549103,-0.106755
1515627137.119,0.091312,-0.07686,-0.024313,0.035339,-0.788666,0.028044
1515627137.129,0.075055,-0.047147,-0.012117,-0.011691,-0.819581,0.1115
1515627137.139,0.076986,0.013818,-0.01277,-0.00379,-0.699143,0.133305
1515627137.149,0.093024,0.075526,-0.011511,0.050507,-0.556475,0.117408
1515627137.159,0.082831,0.085566,-0.009396,0.029498,-0.411115,0.080381
1515627137.169,0.058542,0.05691,-0.065858,0.110701,-0.328197,0.013488
1515627137.179,0.037547,0.045319,-0.077423,0.226717,-0.241328,-0.026351
1515627137.189,0.011489,-0.006003,-0.01681,0.344028,-0.136297,-0.075695
1515627137.199,-0.011841,-0.040359,-0.021501,0.419728,-0.00652,-0.106287
1515627137.209,-0.040163,-0.059657,-0.032855,0.466484,0.105282,-0.129835
1515627137.219,-0.087386,-0.064831,-0.018604,0.461924,0.225882,-0.132672
1515627137.229,-0.141906,-0.07794,-0.014737,0.490185,0.278048,-0.153452
1515627137.239,-0.160622,-0.098764,-0.026289,0.59614,0.315165,-0.931562
1515627137.249,-0.140669,-0.524904,0.033181,0.703821,-0.037526,-1.277568
1515627137.259,0.049585,-0.86525,0.10606,0.572379,-0.228547,-1.329854
1515627137.269,0.011175,-0.495375,-0.00162,0.541502,0.075847,-1.686993
1515627137.279,0.347459,0.044348,0.019467,0.534389,0.346321,-1.836304
1515627137.289,0.428998,0.254112,0.046145,0.540211,0.448954,-1.910426
1515627137.299,0.187002,0.084764,0.021233,0.599736,0.618751,-2.073125
1515627137.310,0.1094,-0.039965,0.088747,0.773909,0.683328,-2.259297
1515627137.320,0.060917,-0.110493,0.192154,0.923861,0.686625,-2.579083
1515627137.330,0.117489,-0.179313,0.219222,1.01887,0.833128,-2.863899
1515627137.340,0.15842,-0.22781,0.19036,1.00383,0.942679,-3.052193
1515627137.350,0.076646,-0.32648,0.166917,0.913525,0.857028,-3.107883
1515627137.360,0.045316,-0.288982,0.095589,0.958141,0.518756,-3.176659
1515627137.370,0.092281,-0.183005,0.107017,0.995905,0.16869,-3.214674
1515627137.380,0.124279,-0.229826,0.169897,0.842439,0.063348,-3.00177
1515627137.390,0.045247,-0.282718,0.117633,0.953565,-0.220108,-3.000338
1515627137.400,0.047361,-0.292112,0.12917,1.127429,-1.032114,-2.992506
1515627137.410,0.097921,-0.211144,0.167449,1.224576,-1.654586,-2.722982
1515627137.420,-0.032183,-0.351819,0.116486,1.038842,-1.560886,-2.306387
1515627137.430,-0.27113,-0.681051,0.055246,0.75791,-0.985384,-2.211956
1515627137.440,-0.261215,-0.596959,-0.057544,0.358371,-0.317062,-2.207021
1515627137.450,-0.201189,-0.175293,-0.116415,0.464486,0.245996,-2.330541
1515627137.460,-0.211915,0.147791,-0.021857,1.033535,0.413221,-2.709684
1515627137.470,-0.077255,0.369803,0.199875,1.045457,0.576505,-3.06679
1515627137.480,0.162297,0.772882,0.138199,1.109479,0.952713,-3.066862
1515627137.490,0.314116,0.777933,0.17254,1.033899,1.010448,-2.956823
1515627137.500,0.361111,0.928688,0.11045,1.079055,1.077055,-2.541803
1515627137.510,0.277031,0.931912,0.166563,1.17604,0.783929,-1.852645
1515627137.520,0.150846,0.725362,0.207546,1.179287,0.332398,-1.151313
1515627137.530,0.034014,0.599865,0.242841,1.059181,0.071083,-0.622263
1515627137.540,-0.088079,0.612887,0.31345,0.847021,-0.041651,-0.318509
1515627137.550,-0.175945,0.643418,0.388611,0.667886,-0.107166,-0.161152
1515627137.560,-0.177699,0.615872,0.479138,0.592194,-0.285433,0.013037
1515627137.570,-0.078231,0.57085,0.582231,0.50988,-0.434956,0.219191
1515627137.580,0.020339,0.6045,0.672863,0.26849,-0.406183,0.377186
1515627137.590,0.109321,0.788668,0.680269,-0.152798,-0.293152,0.572707
1515627137.600,0.191497,1.014315,0.536191,-0.714048,-0.18972,0.71859
1515627137.610,0.311654,1.034412,0.315916,-0.954934,0.255736,0.700178
1515627137.620,0.480654,0.882675,0.370677,-1.111691,0.575561,0.119013
1515627137.630,0.637086,0.685113,0.607074,-1.516539,0.594129,-0.185034
1515627137.640,0.824574,0.382439,0.524289,-2.059815,0.541332,0.063827
1515627137.650,0.498182,-0.017258,0.382951,-2.557138,0.571649,0.254955
1515627137.660,0.350256,-0.171084,0.331556,-2.860876,0.677922,0.329403
1515627137.670,0.281325,-0.158028,0.390682,-3.001915,0.749007,0.402493
1515627137.680,0.169409,-0.038298,0.428043,-3.069168,0.789873,0.4359
1515627137.690,0.123452,0.162651,0.411848,-3.171673,0.610941,0.54161
1515627137.700,0.079225,0.370617,0.315739,-3.278667,0.073225,0.74614
1515627137.710,-0.064099,0.533,-0.054102,-3.408804,-0.534851,0.978902
1515627137.720,-0.17005,0.597549,-0.564848,-3.48269,-0.812281,1.131475
1515627137.730,-0.208884,0.534823,-0.865089,-3.369817,-0.826853,1.123199
1515627137.740,-0.241803,0.440204,-0.827126,-3.050769,-0.449734,0.995215
1515627137.750,-0.304373,0.323534,-0.590322,-2.634679,0.193665,0.813934
1515627137.760,-0.373701,0.18445,-0.235847,-2.263178,0.735909,0.658394
1515627137.770,-0.437361,0.062558,0.012252,-2.102117,0.941093,0.565192
1515627137.780,-0.479273,-0.018053,0.113832,-2.220481,0.791611,0.508946
1515627137.790,-0.484757,-0.021041,0.109991,-2.523612,0.302017,0.420561
1515627137.800,-0.444976,0.032216,0.052531,-2.703332,-0.132727,0.281667
1515627137.810,-0.371161,0.109786,-0.029392,-2.598079,-0.144885,0.204089
1515627137.820,-0.300683,0.184308,-0.06951,-2.625213,-0.256694,0.191666
1515627137.830,-0.242671,0.205007,-0.172449,-2.956307,-0.908375,0.132207
1515627137.840,-0.135828,0.118002,-0.383417,-3.067327,-0.911718,0.07016
1515627137.850,-0.026595,-0.008779,-0.329203,-3.007064,-0.620852,0.07401
1515627137.860,0.052802,-0.104823,-0.182717,-2.944951,-0.250966,0.05366
1515627137.870,0.157511,-0.145883,-0.20905,-2.836069,0.359619,0.069839
1515627137.880,0.29056,-0.152342,-0.238184,-2.784781,0.955358,0.170466
1515627137.890,0.356447,-0.132862,-0.313039,-2.891642,1.545575,0.313898
1515627137.901,0.360835,-0.106114,-0.43202,-3.14079,2.166914,0.358818
1515627137.911,0.327064,-0.066279,-0.51101,-3.457537,2.497744,0.307154
1515627137.921,0.327301,-0.053146,-0.578537,-3.695163,2.818564,0.22446
1515627137.931,0.316051,-0.070661,-0.586782,-3.752654,3.127344,0.203527
1515627137.941,0.269945,-0.091821,-0.534254,-3.57738,3.187893,0.263348
1515627137.951,0.215524,-0.115991,-0.466971,-3.229618,2.955966,0.350866
1515627137.961,0.16816,-0.127405,-0.426989,-2.870965,2.73788,0.425784
1515627137.971,0.153072,-0.158055,-0.387683,-2.563223,2.633367,0.455751
1515627137.981,0.159471,-0.207394,-0.397044,-2.280205,2.630427,0.46873
1515627137.991,0.174578,-0.259311,-0.45242,-1.998513,2.624231,0.50085
1515627138.001,0.200504,-0.306263,-0.493452,-1.692883,2.635846,0.584435
1515627138.011,0.221387,-0.344251,-0.493209,-1.34031,2.541447,0.69378
1515627138.021,0.236933,-0.399327,-0.493647,-0.991047,2.321342,0.752604
1515627138.031,0.244504,-0.45485,-0.495755,-0.638229,2.134331,0.798805
1515627138.041,0.203846,-0.533978,-0.456315,-0.30158,2.003042,0.803471
1515627138.051,0.156874,-0.632784,-0.369332,-0.02057,2.040626,0.826149
1515627138.061,0.116174,-0.697807,-0.2234,0.146298,2.231494,0.855432
1515627138.071,0.106298,-0.681046,-0.063619,0.314174,2.350693,0.938793
1515627138.081,0.101931,-0.59141,0.113267,0.499071,2.362976,1.056069
1515627138.091,0.071642,-0.4699,0.346676,0.475046,2.332082,1.088687
1515627138.101,0.04465,-0.283499,0.60647,0.260799,2.279351,0.999671
1515627138.111,-0.041458,-0.044965,0.748512,-0.175655,2.35865,0.78171
1515627138.121,-0.219619,0.237538,0.756796,-0.683085,2.431323,0.448927
1515627138.131,-0.411309,0.59656,0.764325,-0.925358,2.379239,0.220074
1515627138.141,-0.589418,0.986564,0.711125,-0.88262,2.363812,0.284429
1515627138.151,-0.67065,1.239166,0.575312,-0.771256,2.383729,0.494559
1515627138.161,-0.571914,1.177433,0.411248,-0.645369,2.344866,0.706792
1515627138.171,-0.369349,0.7877,0.2314,-0.488827,2.022117,0.885411
1515627138.181,-0.263612,0.214223,0.052254,-0.363974,1.500439,0.950086
1515627138.191,-0.351076,-0.305643,-0.066189,-0.04103,0.917337,0.813538
1515627138.201,-0.545407,-0.50269,0.008005,0.214829,0.126945,0.579632
1515627138.211,-0.656753,-0.278023,0.10209,0.140354,-0.648329,0.291752
1515627138.221,-0.69432,0.137097,0.083967,-0.140248,-0.863376,-0.265047
1515627138.231,-0.710708,0.583921,0.054912,-0.480047,-0.631041,-0.810378
1515627138.241,-0.76165,0.90751,-0.02008,-0.226083,-0.355801,-0.9757
1515627138.251,-0.75865,0.779899,-0.257193,0.631685,-0.383013,-0.877086
1515627138.261,-0.483553,0.176123,-0.610826,1.258185,-0.776856,-0.766536
1515627138.271,-0.051631,-0.527378,-0.894389,1.635068,-1.644865,-0.67552
1515627138.281,0.178173,-0.978454,-0.848314,2.047652,-2.850914,-0.705566
1515627138.291,0.255865,-1.108732,-0.604954,2.793822,-4.259059,-0.607697
1515627138.301,0.307137,-0.954852,-0.432016,3.911627,-5.669586,-0.516013
1515627138.311,0.387245,-0.690618,-0.513013,4.873397,-6.884275,-0.61935
1515627138.321,0.452898,-0.304407,-0.873471,5.176858,-7.523234,-0.924579
1515627138.331,0.397092,-0.010669,-1.225783,4.841742,-7.504192,-1.186253
1515627138.341,0.240667,0.18326,-1.348257,4.251867,-6.631906,-1.18717
1515627138.351,0.026153,0.380335,-1.28053,3.725255,-4.89119,-0.978826
1515627138.361,-0.181959,0.583831,-1.002535,3.258889,-2.752811,-0.798214
1515627138.371,-0.183278,0.833169,-0.692496,2.936366,-0.660858,-0.732104
1515627138.381,0.025273,0.932714,-0.510008,2.819809,1.187806,-0.735699
1515627138.391,0.351036,0.879849,-0.318218,2.858529,2.417542,-0.685233
1515627138.401,0.663454,0.751243,-0.047999,2.754757,2.25584,-0.304733
1515627138.411,0.82771,0.496734,0.153231,2.427237,1.527443,0.238325
1515627138.421,0.69595,0.148793,0.157395,2.10601,1.060798,0.662021
1515627138.431,0.508166,0.004721,0.140747,1.960058,0.774563,1.035197
1515627138.441,0.350666,-0.046819,0.098228,1.931396,0.578441,1.353653
1515627138.451,0.153779,-0.122588,0.032045,2.110725,0.073224,1.495714
1515627138.461,0.029247,-0.191704,-0.033979,2.587433,-1.152627,1.520682
1515627138.471,-0.064821,-0.263143,-0.170014,3.140887,-2.217822,1.531149
1515627138.481,-0.132221,-0.30513,-0.200955,3.661587,-2.909351,1.531852
1515627138.492,-0.208452,-0.326622,-0.088662,3.917053,-3.151757,1.421216
1515627138.502,-0.240792,-0.297591,0.055598,3.759155,-2.806427,1.192608
1515627138.512,-0.315485,-0.261561,0.207015,3.346124,-2.245467,0.784894
1515627138.522,-0.308451,-0.205341,0.266384,2.780059,-1.802753,0.299326
1515627138.532,-0.214774,-0.166214,0.189268,2.080363,-1.461582,-0.191393
1515627138.542,-0.124528,-0.169681,0.088132,1.244213,-1.038897,-0.546101
1515627138.552,-0.098543,-0.175271,0.153374,0.72395,-0.7193,-0.67373
1515627138.562,-0.081012,-0.09586,0.312759,0.718229,-0.666893,-0.701308
1515627138.572,-0.028109,-0.017427,0.314798,1.013501,-0.838355,-0.727095
1515627138.582,0.119955,0.045177,0.247709,1.320277,-1.158292,-0.723434
1515627138.592,0.318332,0.069416,0.163833,1.559497,-1.497093,-0.690833
1515627138.602,0.470247,0.056767,0.09785,1.672123,-1.604959,-0.556734
1515627138.612,0.489404,0.037647,0.133507,1.725032,-1.257054,-0.366418
1515627138.622,0.371074,0.019392,0.304065,1.675021,-0.610636,-0.229564
1515627138.632,0.192886,-0.000298,0.502592,1.439535,-0.401168,-0.198668
1515627138.642,0.028616,-0.045133,0.39365,1.073182,-0.535969,-0.337716
1515627138.652,-0.022291,-0.040519,0.08412,0.808228,-0.307277,-0.575465
1515627138.662,-0.015046,0.068884,0.094362,0.738737,-0.044809,-0.762827
1515627138.672,0.005321,0.206839,0.401201,0.780543,-0.712675,-0.850867
1515627138.682,0.163478,0.348798,0.505915,0.817636,-1.856049,-0.710572
1515627138.692,0.417535,0.493975,0.295362,0.764176,-2.033197,-0.275209
1515627138.702,0.567321,0.613643,0.182254,0.622628,-0.977688,0.220817
1515627138.712,0.591264,0.70802,0.258614,0.474723,0.479001,0.402928
1515627138.722,0.618908,0.772518,0.4185,0.209806,1.091742,0.177142
1515627138.732,0.627571,0.723964,0.580337,-0.317293,0.757999,-0.141294
1515627138.742,0.596901,0.624025,0.658469,-0.781328,0.340778,-0.184512
1515627138.752,0.532028,0.567374,0.717506,-1.309591,0.234929,-0.052792
1515627138.762,0.488464,0.564841,0.805883,-2.023858,0.234477,0.187801
1515627138.772,0.563187,0.620568,0.687312,-2.719744,0.31892,0.530072
1515627138.782,0.586086,0.592751,0.49107,-3.259677,0.452834,0.772157
1515627138.792,0.478375,0.485304,0.448383,-3.710679,0.371931,0.951748
1515627138.802,0.340864,0.367897,0.392366,-3.932292,0.204687,1.303123
1515627138.812,0.135435,0.262024,0.221911,-3.78134,0.193738,1.73406
1515627138.822,-0.12221,0.234406,0.008963,-3.453319,-0.099765,2.088421
1515627138.832,-0.321983,0.316911,-0.389289,-3.18149,-0.371492,2.100345
1515627138.842,-0.370358,0.495163,-0.849949,-3.009553,-0.31332,1.919449
1515627138.852,-0.419943,0.606921,-1.009595,-2.967029,0.451322,1.618014
1515627138.862,-0.627422,0.691346,-0.710958,-3.04599,1.298233,1.197195
1515627138.872,-0.76115,0.916259,-0.28259,-3.170123,1.521321,0.767308
1515627138.882,-0.772024,1.072561,-0.110274,-3.297238,1.207001,0.567695
1515627138.892,-0.753944,0.943633,-0.083507,-3.274073,0.505812,0.590066
1515627138.902,-0.712275,0.632451,-0.080707,-3.084705,-0.530671,0.695288
1515627138.912,-0.620071,0.36161,-0.126252,-2.811006,-0.976667,0.812064
1515627138.922,-0.504407,0.215032,-0.162423,-2.564863,-0.736117,0.826498
1515627138.932,-0.397851,0.163723,-0.150672,-2.563649,-0.361354,0.741538
1515627138.942,-0.314667,0.097728,-0.27364,-2.712185,0.148969,0.608384
1515627138.952,-0.241374,0.043089,-0.398348,-2.905604,0.640643,0.395823
1515627138.962,-0.100861,-0.019858,-0.508488,-3.068608,1.486214,0.219982
1515627138.972,0.062385,-0.116686,-0.578159,-3.137529,2.349897,0.189096
1515627138.982,0.177722,-0.215333,-0.576011,-3.298625,3.100822,0.236584
1515627138.992,0.260502,-0.280493,-0.679734,-3.677466,3.528899,0.257984
1515627139.002,0.387055,-0.3348,-0.800869,-4.17124,3.8664,0.148838
1515627139.012,0.523667,-0.366193,-0.930403,-4.473813,4.283789,0.028421
1515627139.022,0.62502,-0.374801,-0.974577,-4.225202,4.219985,0.122776
1515627139.032,0.585931,-0.399602,-0.921391,-3.664193,4.029881,0.372739
1515627139.042,0.41089,-0.451756,-0.811205,-3.006281,3.904136,0.651775
1515627139.052,0.215474,-0.490585,-0.754247,-2.449283,3.867287,0.704141
1515627139.062,0.083457,-0.523105,-0.736422,-1.989658,3.778232,0.602876
1515627139.072,0.034314,-0.550513,-0.767647,-1.605937,3.564955,0.467259
1515627139.082,0.007585,-0.591405,-0.776375,-1.278219,3.199264,0.393277
1515627139.093,-0.01333,-0.632001,-0.736053,-0.931664,2.751065,0.389523
1515627139.103,-0.016135,-0.655387,-0.6483,-0.529326,2.305534,0.437565
1515627139.113,0.007995,-0.626805,-0.559773,-0.127325,1.922487,0.62532
1515627139.123,0.017877,-0.598172,-0.483894,0.284594,1.46008,0.916218
1515627139.133,0.024594,-0.600538,-0.399,0.718495,0.958019,1.217894
,,,,,,
1515627139.143,0.034107,-0.590653,-0.303447,1.239408,0.555731,1.506049
1515627139.153,0.022514,-0.586175,-0.149004,1.856004,0.336566,1.724634
1515627139.163,0.003933,-0.571536,0.037762,2.611564,0.462898,1.728832
1515627139.173,-0.015535,-0.526195,0.262031,3.247598,0.915706,1.32485
1515627139.183,-0.031075,-0.467019,0.457003,2.531471,1.582411,0.18865
1515627139.193,-0.066169,-0.362448,0.74055,0.609608,2.183029,-1.188043
1515627139.203,-0.293799,0.008596,1.214364,-1.295052,1.478152,-1.441262
1515627139.213,-0.642803,0.832934,1.302096,-2.110712,1.092857,-0.778308
1515627139.223,-0.843339,1.908574,1.179209,-1.877295,1.686834,-0.182443
1515627139.233,-1.099844,2.574785,0.981979,-1.237844,2.248468,0.367081
1515627139.243,-1.169519,1.950315,0.503975,-0.352475,2.372549,0.794536
1515627139.253,-0.680266,0.677539,0.220674,0.386193,1.867019,0.906054
1515627139.263,-0.073457,-0.42597,0.048991,0.728707,0.982109,1.012572
1515627139.273,0.080125,-1.336328,-0.058323,0.908518,-0.09585,1.096238
1515627139.283,0.01905,-1.673004,-0.120129,0.788549,-1.617573,1.100239
1515627139.293,-0.078474,-1.17424,-0.18848,1.003904,-3.502036,0.769454
1515627139.303,-0.337135,-0.358031,-0.216462,1.696092,-4.226466,-0.254463
1515627139.313,-0.698141,0.52679,-0.2622,1.07302,-3.528849,-1.242481
1515627139.323,-1.098209,1.341667,-0.292857,-0.150849,-1.955291,-1.706535
1515627139.333,-1.330202,1.822225,-0.299449,0.189915,-1.042111,-1.69718
1515627139.343,-1.069052,1.537843,-0.383662,0.849565,-1.634868,-1.190766
1515627139.353,-0.521362,0.357507,-0.955469,1.599356,-2.712472,-0.719004
1515627139.363,-0.097307,-0.586872,-1.26607,2.570637,-3.463356,-0.429818
1515627139.373,0.129727,-0.975106,-1.061899,3.733353,-3.926803,-0.322638
1515627139.383,0.228559,-1.150013,-0.658763,4.738502,-4.427533,-0.567837
1515627139.393,0.385381,-1.021668,-0.578062,5.339502,-4.72954,-0.752258
1515627139.403,0.528216,-0.74682,-0.889869,5.302501,-4.642671,-0.815235
1515627139.413,0.535949,-0.420543,-1.212392,4.7528,-4.2887,-0.955881
1515627139.423,0.533508,0.004647,-1.454373,4.005381,-3.727273,-0.855396
1515627139.433,0.48736,0.36339,-1.479014,3.335449,-2.787462,-0.473678
1515627139.443,0.353958,0.698819,-1.346349,3.074501,-1.79509,-0.329659
1515627139.453,0.40536,1.071287,-1.019256,3.086587,-1.373468,-0.410068
1515627139.463,0.634769,1.305634,-0.439968,3.024853,-1.275064,-0.364683
1515627139.473,0.82865,1.149233,0.26984,2.89051,-0.411131,-0.023637
1515627139.483,0.649211,0.634035,0.798762,2.74514,0.785127,0.504772
1515627139.493,0.297967,0.236837,0.992237,2.55304,1.623798,0.854621
1515627139.503,0.109615,0.007763,0.781556,2.418394,1.84504,0.998586
1515627139.513,0.054338,-0.138806,0.396542,2.517336,0.736723,1.064137
1515627139.523,-0.008327,-0.242232,0.003713,3.019822,-1.48185,1.186118
1515627139.533,-0.062405,-0.349723,-0.404251,3.689584,-3.441275,1.337622
1515627139.543,-0.097992,-0.474409,-0.438244,3.977316,-4.12435,1.494222
1515627139.553,-0.097156,-0.483937,-0.215331,3.639354,-3.297751,1.587762
1515627139.563,-0.271724,-0.484665,0.144848,2.545778,-1.504425,1.196311
1515627139.573,-0.471904,-0.439132,0.502303,1.320471,-0.237695,0.281798
1515627139.583,-0.48148,-0.190274,0.562533,0.439019,-0.078213,-0.402347
1515627139.593,-0.340499,0.006893,0.437145,0.216217,-0.876331,-0.590923
1515627139.603,-0.178781,-0.052989,0.410462,0.665343,-2.253798,-0.478419
1515627139.613,-0.001986,-0.075664,0.425513,1.348388,-3.39716,-0.314379
1515627139.623,0.160759,-0.06526,0.350162,1.812894,-3.568941,-0.252938
1515627139.633,0.274573,-0.097304,0.150719,1.7524,-3.428676,-0.285133
1515627139.643,0.329288,-0.127227,-0.178318,1.53096,-3.12467,-0.47631
1515627139.653,0.314398,-0.116249,-0.438413,1.42025,-2.496711,-0.765147
1515627139.663,0.218283,-0.09128,-0.389198,1.54486,-1.286748,-1.031058
1515627139.673,0.0139,-0.041181,-0.109353,1.849703,0.510698,-1.209727
1515627139.683,-0.230165,0.011097,0.332485,2.057812,1.924488,-1.331238
1515627139.694,-0.351712,0.030561,0.563609,1.782668,2.020719,-1.500345
1515627139.704,-0.173034,0.07071,0.398549,0.759975,0.371693,-1.565149
1515627139.714,0.25858,0.215857,0.17176,0.499164,-1.743424,-1.232626
1515627139.724,0.665265,0.440457,0.118667,1.16266,-2.742215,-0.551846
1515627139.734,0.778161,0.608653,0.493457,1.425304,-2.286781,-0.0594
1515627139.744,0.817606,0.636654,0.601311,0.997177,-1.043794,0.121803
1515627139.754,0.914145,0.589432,0.298293,0.551801,0.08022,0.179926
1515627139.764,0.775293,0.541697,0.243492,0.360873,0.76237,0.112875
1515627139.774,0.491983,0.54985,0.514421,0.226296,0.885398,-0.04593
1515627139.784,0.347879,0.640851,0.806719,-0.089946,0.688232,-0.136667
1515627139.794,0.363038,0.783619,0.840576,-0.50753,0.580869,-0.085618
1515627139.804,0.472795,0.865346,0.761377,-1.129273,0.539592,0.060107
1515627139.814,0.583894,0.823697,0.71451,-1.912614,0.406187,0.311128
1515627139.824,0.685087,0.757943,0.580764,-2.555857,0.237119,0.746876
1515627139.834,0.682905,0.618566,0.441731,-3.01888,0.271767,1.172711
1515627139.844,0.514666,0.430789,0.403609,-3.461278,0.485114,1.401334
1515627139.854,0.306532,0.349666,0.381226,-3.719839,0.560833,1.592295
1515627139.864,0.05756,0.282091,0.361303,-3.667064,0.337413,1.94039
1515627139.874,-0.210044,0.22994,0.234773,-3.328831,-0.009254,2.220148
1515627139.884,-0.384862,0.319574,-0.123804,-3.153272,-0.259959,2.193715
1515627139.894,-0.38769,0.46345,-0.672021,-3.205756,-0.116913,1.951839
1515627139.904,-0.424137,0.5473,-0.985201,-3.207785,0.796126,1.707881
1515627139.914,-0.643927,0.629528,-0.679147,-3.231575,1.874852,1.412048
1515627139.924,-0.859169,0.774615,-0.169385,-3.299672,2.151802,1.038395
1515627139.934,-0.908138,0.919407,-0.028902,-3.39882,1.755632,0.694011
1515627139.944,-0.877376,0.870182,-0.081019,-3.536562,1.095693,0.496282
1515627139.954,-0.81443,0.653538,-0.07317,-3.639782,0.394615,0.410642
1515627139.964,-0.739896,0.428371,-0.086594,-3.659794,-0.37328,0.364112
1515627139.974,-0.650857,0.305474,-0.141433,-3.436515,-0.541254,0.391781
1515627139.984,-0.583663,0.258065,-0.210678,-2.85936,0.653252,0.364477
1515627139.994,-0.55739,0.260476,-0.163971,-2.849911,0.551959,0.326972
1515627140.004,-0.467922,0.177262,-0.39733,-3.198647,0.724263,0.204096
1515627140.014,-0.246197,0.025654,-0.658284,-3.265767,1.884032,0.004926
1515627140.024,0.008806,-0.067204,-0.571289,-3.373456,3.05362,-0.180855
1515627140.034,0.21898,-0.143562,-0.479316,-3.593426,3.262361,-0.281824
1515627140.044,0.358857,-0.186538,-0.676934,-3.91265,3.386691,-0.15319
1515627140.054,0.487622,-0.296907,-0.858071,-4.279794,3.828537,-0.124148
1515627140.064,0.674662,-0.357709,-0.900445,-4.495594,4.202617,-0.223435
1515627140.074,0.847694,-0.367273,-0.97616,-4.329966,4.693613,-0.288981
1515627140.084,0.870698,-0.408378,-0.966431,-3.707702,4.490201,-0.00638
1515627140.094,0.631929,-0.514526,-0.948669,-2.951844,4.55876,0.365017
,,,,,,
1515627140.104,0.285562,-0.58502,-0.892653,-2.317674,4.571614,0.400379
1515627140.114,0.103459,-0.547397,-0.842416,-1.823551,4.171122,0.201555
1515627140.124,0.026135,-0.547023,-0.935488,-1.374096,3.433762,0.006367
1515627140.134,-0.031558,-0.642871,-0.962883,-1.029888,2.656086,-0.052854
1515627140.144,-0.067118,-0.765434,-0.827411,-0.764414,2.088783,-0.016459
1515627140.154,-0.048276,-0.822225,-0.679297,-0.488965,1.634942,0.209997
1515627140.164,-0.031836,-0.86369,-0.52384,-0.112773,1.066874,0.581036
1515627140.174,-0.006522,-0.894315,-0.357924,0.423908,0.458007,1.037995
1515627140.184,0.02695,-0.849528,-0.204065,1.007427,0.23181,1.509605
1515627140.194,0.071424,-0.730666,-0.018892,1.456808,0.503994,1.882271
1515627140.204,0.116167,-0.567109,0.227364,1.883609,1.02479,1.972252
1515627140.214,0.090878,-0.447082,0.497581,2.231909,1.769963,1.477421
1515627140.224,-0.04388,-0.366944,0.780811,2.042831,2.481211,0.359428
1515627140.234,-0.249714,-0.209268,1.031582,0.931162,2.519938,-0.780485
1515627140.244,-0.479382,0.154687,1.209453,-0.406633,1.247457,-1.171524
1515627140.254,-0.673503,0.839378,1.251668,-1.278764,0.672395,-0.762282
1515627140.264,-0.82892,1.702819,1.073408,-1.617241,1.018069,-0.103864
1515627140.274,-1.020494,2.103378,0.634402,-1.402159,1.524754,0.469119
1515627140.284,-1.083236,1.700826,0.180957,-0.91223,1.489356,0.856129
1515627140.294,-0.799607,0.744519,0.046371,-0.296571,0.880633,0.796493
1515627140.305,-0.389343,-0.31746,0.022744,0.152422,0.507513,0.475821
1515627140.315,-0.354616,-1.091437,-0.021321,0.151674,-0.29642,0.320779
1515627140.325,-0.467661,-1.22649,0.021431,0.069228,-1.646265,0.219325
1515627140.335,-0.493289,-0.59867,0.024982,0.127402,-2.443256,-0.21186
1515627140.345,-0.630876,0.202491,0.033551,0.295128,-1.230976,-0.936219
1515627140.355,-0.933192,0.837922,0.013174,0.62238,0.15891,-1.479147
1515627140.365,-1.006917,1.081108,-0.265129,1.034689,-0.525983,-1.65863
1515627140.375,-0.373773,0.749262,-0.882732,1.631315,-2.05371,-1.244561
1515627140.385,0.224807,-0.077851,-1.365191,2.361827,-3.341071,-0.863201
1515627140.395,0.416884,-0.590441,-1.349328,3.139546,-4.519431,-0.625728
1515627140.405,0.401739,-0.708502,-1.095806,3.901751,-5.717255,-0.600424
1515627140.415,0.366068,-0.629848,-1.036532,4.444409,-6.640186,-0.677987
1515627140.425,0.35257,-0.483572,-1.24838,4.633553,-6.972791,-0.806769
1515627140.435,0.335976,-0.28066,-1.391374,4.544021,-6.492558,-0.989366
1515627140.445,0.317332,0.003545,-1.40341,4.483364,-4.941083,-0.925151
1515627140.455,0.198943,0.345287,-1.244795,4.273283,-2.868908,-0.58514
1515627140.465,-0.011201,0.717812,-1.055177,4.137922,-0.764651,-0.412376
1515627140.475,0.00955,1.090777,-0.892259,4.186403,0.852861,-0.526591
1515627140.485,0.282037,1.298086,-0.575132,4.396097,1.656351,-0.643783
1515627140.495,0.601903,1.220229,-0.131995,4.285919,1.216381,-0.310104
1515627140.505,0.77129,0.799475,0.234556,3.565789,0.039156,0.251188
1515627140.515,0.652592,0.239853,0.320869,2.903483,-0.375878,0.896717
1515627140.525,0.395401,-0.070772,0.378396,2.772966,-0.420544,1.426382
1515627140.535,0.22219,-0.228392,0.484758,3.314528,-1.374694,1.754429
1515627140.545,0.148584,-0.331499,0.380349,4.104939,-2.776071,1.976383
1515627140.555,0.09166,-0.423169,0.154883,4.660707,-4.277747,2.016267
1515627140.565,0.009467,-0.448181,0.040568,4.606211,-5.097724,1.977662
1515627140.575,-0.130204,-0.332245,-0.056377,3.924571,-4.826525,1.958675
1515627140.585,-0.269318,-0.259055,0.014247,2.673265,-3.576327,1.573052
1515627140.595,-0.402929,-0.247357,0.211005,1.334105,-2.16689,0.637425
1515627140.605,-0.525001,-0.119868,0.419446,0.450028,-1.341933,-0.277689
1515627140.615,-0.577692,-0.060718,0.477436,0.256983,-1.283714,-0.724943
1515627140.625,-0.462416,-0.154508,0.449827,0.666266,-1.685979,-0.867288
1515627140.635,-0.181052,-0.214162,0.414304,1.271206,-2.428083,-0.900886
1515627140.645,0.064223,-0.166484,0.235834,1.561511,-3.169368,-0.890347
1515627140.655,0.27563,-0.092458,-0.152777,1.483655,-3.42377,-0.916647
1515627140.665,0.445881,-0.016535,-0.413962,1.387228,-2.952425,-0.980088
1515627140.675,0.502525,0.004633,-0.323551,1.550054,-1.577905,-1.075656
1515627140.685,0.488329,-0.025097,0.135142,1.88537,-0.136597,-1.057104
1515627140.695,0.329926,-0.035418,0.591414,2.012305,0.49836,-1.025716
1515627140.705,0.140372,-0.039315,0.504927,1.746905,0.747686,-1.051484
1515627140.715,0.128943,0.027853,0.302609,0.913907,0.560144,-1.106874
1515627140.725,0.225792,0.177727,0.330607,0.335852,-0.269447,-1.086851
1515627140.735,0.410949,0.354207,0.322441,0.593741,-1.01866,-0.875461
1515627140.745,0.552815,0.471739,0.462451,0.965973,-1.316286,-0.650501
1515627140.755,0.653027,0.55021,0.558179,0.936092,-1.119321,-0.468087
1515627140.765,0.855513,0.624426,0.336028,0.630943,-0.372646,-0.146536
1515627140.775,0.969874,0.647931,0.211781,0.317188,0.654496,0.231247
1515627140.785,0.865322,0.680884,0.38771,0.085981,1.13238,0.387707
1515627140.795,0.646097,0.749373,0.68057,-0.262412,0.995297,0.258452
1515627140.805,0.475909,0.799906,0.828037,-0.763597,0.686491,0.090564
1515627140.815,0.405189,0.857551,0.782631,-1.486969,0.498232,0.037556
1515627140.825,0.346329,0.846439,0.726598,-2.285058,0.339676,0.180758
1515627140.835,0.35294,0.738567,0.690918,-2.986311,0.211883,0.509459
1515627140.845,0.465411,0.573901,0.571374,-3.420809,0.079047,0.873299
1515627140.855,0.527879,0.39358,0.463307,-3.550166,0.17024,1.292693
1515627140.865,0.411769,0.248487,0.434764,-3.667462,0.149319,1.715043
1515627140.875,0.191857,0.188747,0.335879,-3.536812,0.083878,2.209443
1515627140.886,0.002527,0.268184,-0.082796,-3.243037,-0.112237,2.540298
1515627140.896,-0.168487,0.419025,-0.665276,-3.006475,-0.127279,2.433407
1515627140.906,-0.235637,0.547879,-1.092107,-2.864994,0.49795,2.153984
1515627140.916,-0.392559,0.594088,-0.867884,-2.838085,1.605561,1.736395
1515627140.926,-0.682367,0.711938,-0.277211,-3.028611,2.277765,1.131537
1515627140.936,-0.789902,0.982887,0.080215,-3.377016,1.991595,0.598172
1515627140.946,-0.77516,1.092098,-0.004894,-3.680423,1.094733,0.422131
1515627140.956,-0.750816,0.887472,-0.142504,-3.674102,-0.109135,0.525642
1515627140.966,-0.704528,0.567049,-0.204722,-3.434851,-1.176086,0.712293
1515627140.976,-0.651987,0.360818,-0.228271,-3.057002,-1.60789,0.850604
1515627140.986,-0.572396,0.274138,-0.206874,-2.640845,-0.696314,0.874705
1515627140.996,-0.513269,0.249581,-0.156821,-2.559595,0.389326,0.861294
1515627141.006,-0.432954,0.187549,-0.235919,-2.900342,0.85174,0.750157
1515627141.016,-0.236701,0.065692,-0.479959,-3.171235,1.639326,0.574949
1515627141.026,0.023211,-0.04414,-0.562917,-3.210122,2.865888,0.447695
1515627141.036,0.199334,-0.150679,-0.50193,-3.246969,3.84551,0.461254
1515627141.046,0.344531,-0.239311,-0.544947,-3.43333,3.873054,0.561337
1515627141.056,0.471774,-0.275076,-0.702441,-3.743351,3.88005,0.664122
1515627141.066,0.554943,-0.298181,-0.83178,-4.158131,4.663985,0.583012
1515627141.076,0.649842,-0.299572,-0.864733,-4.498887,5.227872,0.437079
1515627141.086,0.73931,-0.320035,-0.982318,-4.260891,4.89302,0.56765
,,,,,,
1515627141.096,0.582449,-0.388844,-1.155568,-3.610335,4.63498,0.859989
1515627141.106,0.329717,-0.47135,-1.088589,-2.816512,4.718669,1.099846
1515627141.116,0.117538,-0.519606,-0.954778,-2.14281,4.799757,1.073087
1515627141.126,-0.009753,-0.551278,-0.904464,-1.499865,4.52422,0.867963
1515627141.136,-0.047195,-0.576744,-0.933728,-0.882257,3.935169,0.664656
1515627141.146,-0.05028,-0.638249,-0.901425,-0.380952,3.185395,0.572279
1515627141.156,-0.074181,-0.761937,-0.795533,-0.000552,2.495898,0.555328
1515627141.166,-0.086497,-0.846968,-0.656822,0.343966,1.86396,0.624399
1515627141.176,-0.057693,-0.873184,-0.485869,0.78978,1.2692,0.866266
1515627141.186,-0.033558,-0.899489,-0.300255,1.405667,0.938513,1.254846
1515627141.196,0.008937,-0.884375,-0.074339,2.061004,0.914931,1.617264
1515627141.206,0.091118,-0.773976,0.20294,2.734455,0.967701,1.763985
1515627141.216,0.153867,-0.636238,0.44763,3.430651,1.123015,1.510925
1515627141.226,0.118897,-0.501107,0.586519,3.300463,1.592671,0.419437
1515627141.236,-0.024348,-0.297172,0.625887,1.267253,2.547319,-1.325843
1515627141.246,-0.359501,0.207365,0.747547,-1.414382,2.130918,-1.795078
1515627141.256,-0.907301,1.098347,0.606253,-2.63009,0.908777,-0.881029
1515627141.266,-1.392414,1.966507,0.265313,-2.56747,0.572121,-0.189239
1515627141.276,-1.609204,2.548775,0.320215,-2.047428,0.465745,0.307576
1515627141.286,-1.237213,2.033141,0.515134,-0.957469,0.385371,0.54085
1515627141.296,-0.598764,0.699054,0.505285,-0.107724,0.690461,0.507392
1515627141.306,-0.118537,-0.461241,0.409899,0.188234,0.737546,0.531347
1515627141.316,0.10157,-1.401595,0.48498,0.405195,-0.278899,0.652943
1515627141.326,0.196781,-1.822053,0.491617,0.745586,-1.662092,0.773703
1515627141.336,0.209162,-1.270725,0.348989,1.422868,-2.695717,0.355546
1515627141.346,-0.12675,-0.241614,0.098432,1.31972,-3.345272,-0.463637
1515627141.356,-0.592423,0.902955,-0.397968,0.120983,-3.346496,-0.97218
1515627141.366,-0.861364,1.74424,-0.859372,0.004858,-2.565411,-1.097628
1515627141.376,-0.769625,1.672766,-1.084335,0.343635,-2.156919,-0.753514
1515627141.386,-0.707725,0.616378,-1.211912,1.008709,-2.045748,-0.506592
1515627141.396,-0.578853,-0.213483,-0.976063,2.090065,-2.297036,-0.514676
1515627141.406,-0.308514,-0.587673,-0.7092,3.305999,-3.084383,-0.643309
1515627141.416,-0.043022,-0.718829,-0.675023,4.166026,-3.911566,-0.933967
1515627141.426,0.19589,-0.741093,-0.970117,4.740425,-3.894845,-1.302911
1515627141.436,0.367028,-0.598841,-1.208208,4.86742,-3.635622,-1.53797
1515627141.446,0.418618,-0.370501,-1.2582,4.355,-3.5381,-1.634319
1515627141.456,0.400699,-0.052123,-1.40731,3.462705,-2.658875,-1.209693
1515627141.466,0.216575,0.338561,-1.464503,2.657325,-1.378165,-0.731531
1515627141.476,0.056121,0.773894,-1.333917,2.300137,-0.2047,-0.63597
1515627141.486,0.175278,1.159486,-1.078796,2.8067,0.973412,-0.72914
1515627141.496,0.408727,1.224151,-0.517098,4.142439,1.831271,-0.456685
1515627141.507,0.604966,1.036132,0.520188,4.873742,1.645841,0.301173
1515627141.517,0.488378,0.474166,0.843734,4.52496,0.348429,0.990051
1515627141.527,0.292405,-0.017199,0.605653,3.940939,-1.069674,1.534052
1515627141.537,0.153196,-0.218745,0.343354,3.616107,-2.332968,1.863395
1515627141.547,0.123075,-0.257271,0.196888,3.690222,-3.696639,2.08538
1515627141.557,0.145408,-0.245698,0.113665,3.945582,-4.619017,2.078906
1515627141.567,0.076644,-0.222306,0.058194,3.883636,-4.733435,1.956369
1515627141.577,-0.001395,-0.203447,0.165047,3.471184,-4.476524,1.860704
1515627141.587,-0.099015,-0.239709,0.146521,2.844296,-3.679008,1.637586
1515627141.597,-0.183876,-0.244845,0.164046,1.986139,-2.291679,0.960053
1515627141.607,-0.296281,-0.229159,0.357556,0.842486,-0.723265,-0.036572
1515627141.617,-0.432475,-0.244846,0.588917,0.186139,-0.011426,-0.745936
1515627141.627,-0.420834,-0.318761,0.565084,0.274368,-0.009853,-1.068601
1515627141.637,-0.153603,-0.324084,0.482716,0.819091,-0.483795,-1.095617
1515627141.647,0.116642,-0.233776,0.406775,1.29798,-1.263036,-0.94663
1515627141.657,0.302017,-0.138499,0.161744,1.534605,-1.799566,-0.803987
1515627141.667,0.450432,-0.010127,-0.080184,1.564776,-1.987704,-0.754217
1515627141.677,0.482309,0.073688,-0.165612,1.534829,-1.595771,-0.808611
1515627141.687,0.419396,0.101678,-0.035786,1.620118,-0.668934,-0.880021
1515627141.697,0.303452,0.12054,0.297946,1.739891,0.103838,-0.889779
1515627141.707,0.06445,0.049276,0.491358,1.671431,0.55882,-0.899695
1515627141.717,-0.099797,-0.034679,0.411378,1.212354,0.810764,-1.015106
1515627141.727,-0.177823,0.034299,0.404721,0.629028,0.223863,-1.134883
1515627141.737,-0.118002,0.2065,0.34557,0.588322,-0.925421,-0.991284
1515627141.747,0.122665,0.291459,0.254134,0.898362,-1.954624,-0.744018
1515627141.757,0.436602,0.361557,0.338906,0.994675,-2.201511,-0.481738
1515627141.767,0.798809,0.540603,0.268333,0.901669,-1.359476,-0.052947
1515627141.777,1.06249,0.74264,0.181965,0.821931,0.226969,0.439251
1515627141.787,1.121344,0.834963,0.387871,0.720122,1.012021,0.696291
1515627141.797,0.90617,0.748407,0.712533,0.164244,0.681094,0.548967
1515627141.807,0.554425,0.602036,0.820668,-0.469728,0.215846,0.200042
1515627141.817,0.32104,0.566663,0.799466,-0.997442,0.087536,0.027128
1515627141.827,0.177708,0.612944,0.841667,-1.647174,0.148113,0.078089
1515627141.837,0.149436,0.647831,0.813864,-2.406452,0.070113,0.305096
1515627141.847,0.340327,0.634678,0.611671,-3.105333,-0.187083,0.720705
1515627141.857,0.463262,0.611267,0.359593,-3.462599,-0.23426,1.163506
1515627141.867,0.402512,0.526032,0.309596,-3.54029,-0.129406,1.545232
1515627141.877,0.287471,0.375292,0.350041,-3.498526,-0.005306,2.003004
1515627141.887,0.120879,0.287449,0.157711,-3.260298,0.044959,2.465017
1515627141.897,-0.103501,0.354337,-0.27748,-3.050496,-0.057068,2.579008
1515627141.907,-0.217652,0.499934,-0.705832,-3.024016,0.089497,2.408378
1515627141.917,-0.280278,0.635964,-0.893761,-3.076776,0.868743,2.07177
1515627141.927,-0.471291,0.757487,-0.612014,-3.088024,1.815007,1.480655
1515627141.937,-0.692499,0.995003,-0.183965,-3.131466,2.293497,0.771477
1515627141.947,-0.833185,1.210341,0.023657,-3.386081,2.108731,0.362052
1515627141.957,-0.88504,1.088133,-0.020241,-3.675727,1.283917,0.309953
1515627141.967,-0.849979,0.698401,-0.134451,-3.691692,0.306598,0.347947
1515627141.977,-0.747429,0.397675,-0.17095,-3.392082,-0.237473,0.390156
1515627141.987,-0.607412,0.235,-0.082159,-3.035972,0.110315,0.34771
1515627141.997,-0.456589,0.169618,-0.074205,-2.797947,0.745715,0.350618
1515627142.007,-0.343268,0.129843,-0.196446,-2.839468,1.393415,0.406646
1515627142.017,-0.230931,0.037098,-0.357652,-3.110299,2.114415,0.362194
1515627142.027,-0.004901,-0.052599,-0.51047,-3.363854,3.334732,0.284517
1515627142.037,0.213975,-0.130874,-0.589612,-3.894683,4.148455,0.133959
1515627142.047,0.401401,-0.228458,-0.683834,-4.484663,3.959694,-0.027132
1515627142.057,0.537214,-0.308533,-0.961945,-4.897902,4.129334,-0.185935
1515627142.067,0.613208,-0.386243,-1.075435,-5.15379,4.648919,-0.328868
1515627142.077,0.712636,-0.412466,-0.992548,-4.957694,4.464993,-0.264309
1515627142.087,0.745779,-0.411966,-0.999839,-4.355394,3.969071,0.109698
1515627142.097,0.597688,-0.450087,-0.909911,-3.580495,3.595634,0.531992
1515627142.108,0.354444,-0.473819,-0.796787,-2.949826,3.592173,0.667357
,,,,,,
1515627142.118,0.161269,-0.453808,-0.767319,-2.438763,3.618984,0.594794
1515627142.128,0.01213,-0.433403,-0.825567,-1.974692,3.704927,0.478207
1515627142.138,-0.077934,-0.457301,-0.859549,-1.555925,3.672489,0.435213
1515627142.148,-0.110078,-0.457897,-0.874979,-1.129209,3.589508,0.496503
1515627142.158,-0.132177,-0.435002,-0.838749,-0.734878,3.411257,0.714684
1515627142.168,-0.123238,-0.407271,-0.73502,-0.335777,3.03414,1.049381
1515627142.178,-0.119945,-0.43674,-0.640817,0.024115,2.450391,1.355211
1515627142.188,-0.076475,-0.480786,-0.561729,0.422827,1.732301,1.558818
1515627142.198,-0.002606,-0.551642,-0.439565,1.029349,1.031309,1.671272
1515627142.208,0.071759,-0.638635,-0.257616,1.768894,0.53744,1.803073
1515627142.218,0.11123,-0.677319,-0.000965,2.591584,0.250274,1.857779
1515627142.228,0.107272,-0.690148,0.292372,3.286472,0.337914,1.424503
1515627142.238,0.061326,-0.699257,0.487305,3.283597,1.123053,0.183344
1515627142.248,-0.044366,-0.636614,0.660596,1.69717,2.042992,-1.297906
1515627142.258,-0.304956,-0.415181,0.987381,-0.407411,1.229796,-1.95537
1515627142.268,-0.582332,0.145252,1.035409,-1.790218,0.24662,-1.350272
1515627142.278,-0.713626,0.986605,0.932981,-1.823663,0.545908,-0.170798
1515627142.288,-0.920555,1.892186,1.217414,-1.322801,0.765844,0.732633
1515627142.298,-1.346623,2.288744,0.959063,-0.450059,0.974478,1.104851
1515627142.308,-1.408313,1.714623,0.369606,0.064448,0.962706,1.077988
1515627142.318,-0.81416,0.660945,-0.086889,0.158456,0.661556,0.65958
1515627142.328,-0.425283,-0.415624,-0.175146,0.144795,-0.044558,0.310904
1515627142.338,-0.460377,-1.130329,0.134003,0.153546,-1.613459,0.13419
1515627142.348,-0.286852,-0.972971,0.154503,0.007211,-3.046769,-0.089718
1515627142.358,-0.185481,-0.262215,-0.056767,0.04155,-2.789316,-0.574021
1515627142.368,-0.474972,0.376243,-0.152279,0.466771,-0.806397,-1.255373
1515627142.378,-0.883693,0.801261,-0.122002,0.798652,0.152089,-1.69749
1515627142.388,-0.826683,0.744908,-0.397442,1.008338,-0.669834,-1.664768
1515627142.398,-0.30562,0.122735,-0.980312,1.670382,-1.861198,-1.462808
1515627142.408,0.162116,-0.480307,-1.114453,2.728998,-3.285913,-1.161034
1515627142.418,0.38101,-0.674686,-0.936967,3.67645,-4.685754,-1.063909
1515627142.428,0.474807,-0.653744,-0.940192,4.237917,-5.745527,-1.094858
1515627142.438,0.485842,-0.532357,-1.148951,4.340653,-6.387093,-1.18953
1515627142.448,0.446678,-0.400542,-1.39267,4.041347,-6.323134,-1.232313
1515627142.458,0.432666,-0.199669,-1.464232,3.619123,-5.279789,-1.024035
1515627142.468,0.344133,0.144985,-1.399646,3.095645,-3.352184,-0.555177
1515627142.478,0.098438,0.615173,-1.229757,2.841023,-1.094555,-0.391842
1515627142.488,0.07389,1.106606,-0.967195,2.93766,0.999983,-0.633764
1515627142.498,0.308599,1.454441,-0.561785,3.364697,2.392018,-0.734612
1515627142.508,0.542968,1.43672,-0.091114,3.916189,2.90639,-0.239554
1515627142.518,0.595168,1.004553,0.255679,4.154254,2.28996,0.504506
1515627142.528,0.54161,0.419848,0.466099,3.749485,0.848431,1.006922
1515627142.538,0.479548,-0.034242,0.467362,3.250893,-0.325662,1.479308
1515627142.548,0.280589,-0.25141,0.365313,3.225502,-1.248878,1.948661
1515627142.558,0.076461,-0.357666,0.350622,3.767594,-2.455123,2.366369
1515627142.568,-0.039748,-0.434935,0.27573,4.387453,-3.399484,2.486669
1515627142.578,-0.104706,-0.424947,0.168805,4.488736,-3.860282,2.257355
1515627142.588,-0.103277,-0.296048,0.19763,4.226134,-4.561036,2.063308
1515627142.598,-0.165175,-0.211675,0.00061,3.621396,-4.89083,1.99101
1515627142.608,-0.278511,-0.254851,-0.143635,2.845666,-4.033432,1.696021
1515627142.618,-0.365064,-0.302109,0.009161,1.890102,-2.056998,0.837234
1515627142.628,-0.452226,-0.253362,0.413222,0.839181,-0.36531,-0.192996
1515627142.638,-0.548965,-0.242858,0.640523,0.151676,-0.017422,-0.801749
1515627142.648,-0.450232,-0.305239,0.42371,0.141074,-0.470853,-1.103732
1515627142.658,-0.197359,-0.305879,0.296177,0.605294,-1.337795,-1.182047
1515627142.668,-0.005307,-0.21921,0.248785,1.087105,-2.209801,-1.055706
1515627142.678,0.123816,-0.114735,0.029828,1.32554,-2.669451,-0.935141
1515627142.688,0.240726,-0.006755,-0.166545,1.412007,-2.485386,-0.949444
1515627142.699,0.3269,0.087201,-0.12083,1.572425,-1.685918,-1.044879
1515627142.709,0.347226,0.138302,0.129279,1.855533,-0.684781,-1.064669
1515627142.719,0.272493,0.104491,0.400261,1.966708,-0.118121,-0.998563
1515627142.729,0.216999,-0.056523,0.398246,1.794206,0.186855,-0.9357
1515627142.739,0.260511,-0.134308,0.231123,1.495885,0.563457,-0.991245
1515627142.749,0.321271,0.031757,0.295815,1.045445,0.466488,-1.114136
1515627142.759,0.429632,0.344255,0.472007,0.720137,-0.501531,-1.025522
1515627142.769,0.598383,0.578555,0.461988,0.742654,-1.54515,-0.696572
1515627142.779,0.706043,0.695623,0.335963,0.749166,-1.543355,-0.287563
1515627142.789,0.805638,0.76688,0.23478,0.641233,-0.484709,0.162023
1515627142.799,0.85906,0.727725,0.258312,0.530627,0.753607,0.488662
1515627142.809,0.753372,0.644914,0.463905,0.150583,1.229869,0.460162
1515627142.819,0.562478,0.605219,0.669703,-0.441837,0.953972,0.198642
1515627142.829,0.416502,0.608694,0.697579,-0.93772,0.529803,0.061305
1515627142.839,0.330759,0.671205,0.721408,-1.505729,0.334638,0.178398
1515627142.849,0.277404,0.746165,0.78041,-2.252697,0.395194,0.424131
1515627142.859,0.32063,0.765405,0.703831,-2.969432,0.543015,0.677981
1515627142.869,0.389847,0.668848,0.621307,-3.520799,0.476255,0.970357
1515627142.879,0.306056,0.46262,0.605428,-3.925939,0.199583,1.217984
1515627142.889,0.116769,0.315626,0.554579,-4.127405,-0.427763,1.608493
1515627142.899,-0.055035,0.24396,0.319799,-3.840478,-0.653271,2.128718
1515627142.909,-0.250919,0.247704,0.045554,-3.482018,-0.798183,2.336997
1515627142.919,-0.380984,0.354777,-0.513005,-3.254538,-0.764035,2.214192
1515627142.929,-0.371165,0.520717,-1.086397,-3.137481,-0.172997,1.997187
1515627142.939,-0.504738,0.618796,-1.014126,-3.003345,1.022256,1.645083
1515627142.949,-0.767347,0.798554,-0.433043,-2.947266,2.070135,1.165877
1515627142.959,-0.839607,1.097801,0.107829,-3.167441,2.171004,0.779142
1515627142.969,-0.782394,1.148994,0.215218,-3.519887,1.359661,0.648595
1515627142.979,-0.704629,0.898969,0.035373,-3.692881,0.077219,0.666617
1515627142.989,-0.624252,0.589973,-0.12333,-3.542318,-1.020644,0.696618
1515627142.999,-0.528815,0.402885,-0.181469,-3.12622,-1.0074,0.717643
1515627143.009,-0.464968,0.319483,-0.131853,-2.824947,-0.211167,0.679267
1515627143.019,-0.464872,0.259573,-0.167661,-2.912781,0.332856,0.560803
1515627143.029,-0.421449,0.174975,-0.386224,-3.075275,1.169757,0.424339
1515627143.039,-0.352028,0.092563,-0.49027,-3.089626,2.179653,0.274276
1515627143.049,-0.190366,-0.026194,-0.554819,-3.02286,3.259383,0.141402
1515627143.059,0.041039,-0.16706,-0.59562,-3.245074,3.633497,0.044167
1515627143.069,0.244472,-0.29661,-0.728275,-3.754023,3.565681,-0.068679
1515627143.079,0.422761,-0.399018,-0.942427,-4.2243,3.724877,-0.184542
1515627143.089,0.625635,-0.494547,-1.020318,-4.4298,3.899831,-0.100158
1515627143.099,0.753572,-0.535583,-0.989367,-4.168015,3.97638,0.11304
,,,,,,
1515627143.109,0.739046,-0.539596,-0.902856,-3.499244,3.666843,0.455472
1515627143.119,0.557798,-0.557166,-0.843815,-2.739568,3.702797,0.678782
1515627143.129,0.281572,-0.608575,-0.787829,-2.112072,3.97424,0.608457
1515627143.139,0.08451,-0.659011,-0.741909,-1.586234,3.932238,0.346283
1515627143.149,-0.024928,-0.669875,-0.839858,-1.14705,3.792408,0.154081
1515627143.159,-0.07111,-0.700345,-0.857287,-0.793085,3.42006,0.105949
1515627143.169,-0.04903,-0.747315,-0.786311,-0.538929,3.03694,0.282341
1515627143.179,-0.025228,-0.787507,-0.695441,-0.268345,2.55421,0.542716
1515627143.189,0.00773,-0.821723,-0.56005,0.027237,1.865306,0.832504
1515627143.199,0.036529,-0.806094,-0.427458,0.423704,1.032663,1.158156
1515627143.209,0.060314,-0.780868,-0.276849,0.99648,0.431271,1.543161
1515627143.219,0.089894,-0.707813,-0.089568,1.577107,0.264316,1.852009
1515627143.229,0.125723,-0.592512,0.118123,2.197588,0.40619,1.936633
1515627143.239,0.13535,-0.483236,0.323116,2.696909,0.975369,1.454731
1515627143.249,0.098888,-0.35704,0.576578,2.140079,2.314263,0.000081
1515627143.259,-0.021109,-0.115699,0.993591,0.643551,3.168487,-1.465404
1515627143.269,-0.344347,0.336553,1.422567,-0.830371,1.850006,-1.555804
1515627143.279,-0.599413,0.998262,1.185861,-1.685748,0.990806,-0.757577
1515627143.289,-0.774132,1.733845,0.776587,-1.843913,1.168405,0.041938
1515627143.299,-1.156664,2.053205,0.542492,-1.586632,1.587645,0.520352
1515627143.309,-1.404925,1.550106,0.219522,-0.646954,1.659461,0.838597
1515627143.320,-1.019561,0.668517,0.184527,0.141209,1.148142,0.990092
1515627143.330,-0.443688,-0.197941,0.030116,0.319138,0.529145,1.020996
1515627143.340,-0.261387,-0.980822,-0.134587,0.440438,-0.08074,0.988421
1515627143.350,-0.314163,-1.354337,-0.03451,0.420211,-1.108607,0.835573
1515627143.360,-0.367442,-0.96105,0.036386,0.526009,-2.376583,0.454464
1515627143.370,-0.566462,-0.198613,0.110327,0.899243,-2.739067,-0.349486
1515627143.380,-0.711698,0.603412,0.169273,1.032006,-1.99471,-1.141892
1515627143.390,-0.763255,1.176783,0.082076,0.824124,-1.154727,-1.474834
1515627143.400,-0.790522,1.266223,-0.344608,0.965887,-0.860252,-1.431654
1515627143.410,-0.535716,0.690086,-0.765113,1.274142,-1.408885,-1.318008
1515627143.420,-0.085282,-0.16788,-1.144848,1.892622,-2.325345,-1.24342
1515627143.430,0.209212,-0.677548,-1.20198,2.704982,-3.238767,-1.176072
1515627143.440,0.258303,-0.901489,-0.959546,3.382044,-4.091916,-1.324193
1515627143.450,0.322588,-0.86596,-0.799525,3.838669,-4.798225,-1.566046
1515627143.460,0.447705,-0.654074,-0.94872,4.137935,-4.931157,-1.636379
1515627143.470,0.479732,-0.38669,-1.175321,4.165305,-4.526348,-1.50368
1515627143.480,0.455895,-0.095515,-1.290755,3.846523,-3.919633,-1.09758
1515627143.490,0.391405,0.269292,-1.355803,3.49263,-2.74172,-0.422655
1515627143.500,0.208304,0.692317,-1.267669,3.374103,-1.448083,-0.033092
1515627143.510,0.208506,1.135379,-1.038411,3.663883,-0.2762,-0.077775
1515627143.520,0.44408,1.416225,-0.591747,4.297209,0.55088,-0.091817
1515627143.530,0.682894,1.36139,0.036955,4.591936,0.381361,0.260438
1515627143.540,0.727652,0.917581,0.491146,4.083438,-0.439604,0.758406
1515627143.550,0.6013,0.327029,0.57339,3.320645,-0.713716,1.251991
1515627143.560,0.329816,-0.027991,0.549437,2.898516,-0.499981,1.644855
1515627143.570,0.114702,-0.185965,0.587548,2.95344,-0.490355,1.851075
1515627143.580,-0.008095,-0.264576,0.517322,3.208353,-1.154503,1.83483
1515627143.590,-0.05888,-0.305889,0.281638,3.494096,-2.39358,1.716887
1515627143.600,-0.11521,-0.321911,0.036993,3.697914,-3.870217,1.649326
1515627143.610,-0.247232,-0.373367,-0.192974,3.520807,-4.708623,1.615573
1515627143.620,-0.323682,-0.430741,-0.202037,3.11011,-4.679272,1.608603
1515627143.630,-0.398463,-0.455637,-0.069169,2.603032,-3.294047,1.201513
1515627143.640,-0.420601,-0.368171,0.259843,1.971061,-1.305592,0.269987
1515627143.650,-0.452446,-0.206051,0.569074,1.17243,-0.09814,-0.652374
1515627143.660,-0.459157,-0.165588,0.539436,0.559232,-0.094908,-1.072924
1515627143.670,-0.340143,-0.213547,0.264435,0.435647,-0.663245,-1.252066
1515627143.680,-0.140239,-0.22149,0.178236,0.781127,-1.47524,-1.260273
1515627143.690,0.03169,-0.133516,0.170015,1.175405,-2.226092,-1.142024
1515627143.700,0.179555,-0.028789,0.017648,1.399325,-2.614176,-1.018194
1515627143.710,0.302964,0.051724,-0.119725,1.573174,-2.528934,-1.001967
1515627143.720,0.37587,0.09458,-0.060007,1.821465,-1.762119,-1.074093
1515627143.730,0.379697,0.115947,0.226187,2.035969,-0.804336,-1.077819
1515627143.740,0.281959,0.093932,0.497978,1.982935,-0.135205,-1.027181
1515627143.750,0.166883,0.038431,0.468425,1.63158,0.256425,-1.007705
1515627143.760,0.152942,0.061059,0.351045,0.924112,0.182027,-1.001562
1515627143.770,0.203183,0.197955,0.346316,0.365607,-0.492066,-0.938175
1515627143.780,0.319505,0.353862,0.343391,0.442356,-1.115237,-0.739182
1515627143.790,0.46667,0.468181,0.437449,0.739665,-1.309942,-0.517966
1515627143.800,0.623702,0.563718,0.519782,0.739369,-1.014161,-0.270964
1515627143.810,0.834122,0.637725,0.363571,0.465909,-0.19532,0.104461
1515627143.820,0.938157,0.679353,0.327836,0.176273,0.582027,0.476354
1515627143.830,0.822098,0.720546,0.503296,-0.103377,0.78845,0.54611
1515627143.840,0.610894,0.735779,0.710884,-0.539689,0.609721,0.278282
1515627143.850,0.468514,0.756907,0.854298,-1.168348,0.423527,0.062424
1515627143.860,0.409792,0.806327,0.854657,-1.885681,0.401315,0.115482
1515627143.870,0.415527,0.787428,0.819596,-2.687047,0.337564,0.310085
1515627143.880,0.536274,0.711497,0.726145,-3.401468,0.331746,0.560242
1515627143.890,0.647641,0.621029,0.561813,-3.837915,0.268489,0.859338
1515627143.901,0.625025,0.499473,0.479067,-4.015086,0.078238,1.304881
1515627143.911,0.452258,0.321026,0.455624,-3.838079,0.001439,1.915874
1515627143.921,0.187167,0.231433,0.258661,-3.60125,0.022864,2.390551
1515627143.931,-0.037327,0.32405,-0.295037,-3.393678,-0.028043,2.536636
1515627143.941,-0.160135,0.455826,-1.055738,-3.210664,0.199542,2.402244
1515627143.951,-0.275971,0.552584,-1.198671,-3.023814,1.016392,2.162359
1515627143.961,-0.548159,0.635059,-0.757726,-2.948959,2.263525,1.724527
1515627143.971,-0.738533,0.898393,-0.156235,-3.067553,2.959645,1.167472
1515627143.981,-0.73612,1.163112,0.116194,-3.357032,2.593806,0.734644
1515627143.991,-0.6928,1.153672,-0.004092,-3.603418,1.371001,0.608225
1515627144.001,-0.660262,0.870084,-0.21165,-3.563986,0.023928,0.719099
1515627144.011,-0.647929,0.550838,-0.284728,-3.2463,-0.919776,0.908179
1515627144.021,-0.600873,0.357101,-0.232961,-2.783508,-0.614721,0.995724
1515627144.031,-0.530901,0.265274,-0.136196,-2.590522,0.059512,0.958822
1515627144.041,-0.464079,0.21825,-0.182588,-2.713535,0.825875,0.782126
1515627144.051,-0.33347,0.144725,-0.393436,-2.903883,1.652537,0.570749
1515627144.061,-0.110148,0.054883,-0.509655,-3.069983,2.843567,0.467401
1515627144.071,0.084053,-0.057884,-0.550574,-3.137018,3.682674,0.443909
1515627144.081,0.237982,-0.184185,-0.580752,-3.342494,3.607027,0.491228
1515627144.091,0.339149,-0.309452,-0.748635,-3.628874,3.323905,0.52302
1515627144.101,0.400705,-0.432204,-0.859334,-3.906971,3.917683,0.570693
1515627144.111,0.436888,-0.508915,-0.861784,-4.185214,4.737021,0.486022
,,,,,,
1515627144.121,0.506813,-0.546752,-0.914893,-4.283997,4.928166,0.307648
1515627144.131,0.560538,-0.532783,-1.068865,-3.661551,4.371422,0.324945
1515627144.141,0.465951,-0.537905,-1.101999,-2.87282,4.149483,0.401829
1515627144.151,0.270816,-0.58743,-0.932762,-2.176541,4.041378,0.435394
1515627144.161,0.075005,-0.61929,-0.93875,-1.62818,3.864499,0.263546
1515627144.171,-0.049164,-0.634795,-1.017472,-1.115453,3.410758,-0.000194
1515627144.181,-0.092049,-0.668196,-1.056314,-0.679361,3.007305,-0.158195
1515627144.191,-0.139997,-0.710309,-0.9723,-0.328597,2.801152,-0.126992
1515627144.201,-0.150374,-0.764897,-0.815757,0.034928,2.493159,0.024349
1515627144.211,-0.097664,-0.798737,-0.672718,0.44362,1.902937,0.257266
1515627144.221,-0.071401,-0.796763,-0.550723,0.888149,1.246344,0.487192
1515627144.231,-0.066282,-0.773678,-0.401404,1.31803,0.761415,0.778229
1515627144.241,-0.013218,-0.657987,-0.145045,1.710871,0.402203,1.19491
1515627144.251,0.051441,-0.462104,0.249838,1.988044,0.295002,1.450261
1515627144.261,0.047666,-0.27897,0.726882,1.974141,0.765169,1.26002
1515627144.271,-0.064482,-0.138819,1.148181,1.398737,1.406697,0.682372
1515627144.281,-0.278446,0.029657,1.181671,-0.210757,1.651099,-0.060292
1515627144.291,-0.548011,0.294491,1.049689,-1.622765,1.132069,-0.369777
1515627144.301,-0.877568,0.817031,1.150457,-1.767489,0.512173,-0.083985
1515627144.311,-1.206051,1.62953,1.220501,-1.453111,0.66996,0.301574
1515627144.321,-1.258991,2.094161,0.96759,-1.159409,1.376127,0.731358
1515627144.331,-0.662511,1.719422,0.600777,-0.577208,1.672163,1.052458
1515627144.341,-0.140457,0.738939,0.257794,-0.083098,1.696419,1.139419
1515627144.351,-0.040446,-0.195193,0.033831,0.176903,1.577114,0.898275
1515627144.361,-0.173949,-0.823418,0.038147,0.288059,1.126472,0.483821
1515627144.371,-0.340454,-1.046443,0.247719,0.147411,-0.268431,0.249465
1515627144.381,-0.418419,-0.781212,0.219695,0.190061,-1.963571,0.109998
1515627144.391,-0.483484,-0.245147,-0.028246,0.680057,-2.606874,-0.2143
1515627144.401,-0.579,0.227564,-0.317353,1.189619,-1.720381,-0.848339
1515627144.411,-0.792813,0.489781,-0.481003,1.206846,-0.669422,-1.53566
1515627144.421,-0.970289,0.474873,-0.678346,1.166738,-0.878088,-1.912769
1515627144.431,-0.687017,0.153949,-0.980729,1.563408,-2.078462,-1.693799
1515627144.441,-0.239787,-0.293335,-1.265341,2.343158,-3.290162,-1.380807
1515627144.451,0.067,-0.591551,-1.160796,3.276052,-4.380114,-1.080464
1515627144.461,0.225269,-0.60028,-0.961593,3.960379,-5.315151,-1.001952
1515627144.471,0.30742,-0.458319,-0.970616,4.322952,-5.694987,-1.060655
1515627144.481,0.364891,-0.183398,-1.128278,4.256634,-5.481037,-1.102252
1515627144.491,0.351751,0.086774,-1.265967,3.97838,-4.688379,-0.864347
1515627144.502,0.259588,0.357629,-1.323741,3.744598,-3.372765,-0.443084
1515627144.512,0.116982,0.655762,-1.172389,3.68484,-1.844266,-0.209616
1515627144.522,0.122622,0.959071,-0.95042,3.857287,-0.345165,-0.249266
1515627144.532,0.317483,1.138724,-0.635113,4.253043,0.68636,-0.321907
1515627144.542,0.548149,1.12437,-0.218767,4.609844,1.114447,-0.129791
1515627144.552,0.688923,0.863994,0.157515,4.320405,0.529037,0.333282
1515627144.562,0.755761,0.41558,0.368993,3.500418,-0.140386,0.783295
1515627144.572,0.656008,-0.00097,0.386985,2.832501,-0.533599,1.294653
1515627144.582,0.366211,-0.217457,0.389819,2.693735,-0.71023,1.740705
1515627144.592,0.116741,-0.324087,0.391752,3.166217,-1.327519,1.967907
1515627144.602,0.007596,-0.382389,0.31821,3.764096,-2.386963,2.087549
1515627144.612,-0.072877,-0.43095,0.155987,4.270371,-3.901747,1.994744
1515627144.622,-0.133041,-0.408169,0.026787,4.382276,-4.973046,1.812454
1515627144.632,-0.215172,-0.319485,-0.029913,4.024546,-5.011725,1.626983
1515627144.642,-0.337996,-0.252571,0.085345,3.317661,-3.996376,1.184277
1515627144.652,-0.425959,-0.168958,0.204284,2.250052,-2.269893,0.310507
1515627144.662,-0.488208,-0.119445,0.356242,1.084543,-0.730247,-0.655597
1515627144.672,-0.56426,-0.169905,0.449235,0.383505,-0.256494,-1.228941
1515627144.682,-0.484554,-0.271821,0.324896,0.357727,-0.332249,-1.497867
1515627144.692,-0.229177,-0.236093,0.259348,0.838517,-0.661707,-1.535806
1515627144.702,0.01677,-0.138048,0.287069,1.28241,-1.243339,-1.387629
1515627144.712,0.231346,-0.001575,0.149266,1.578675,-1.677987,-1.198128
1515627144.722,0.42611,0.130712,0.006921,1.830539,-1.595858,-1.039341
1515627144.732,0.538064,0.180949,0.120146,1.990056,-0.937787,-0.96382
1515627144.742,0.563373,0.186567,0.398841,1.915503,-0.366857,-0.858402
1515627144.752,0.452032,0.165148,0.52226,1.518487,-0.376262,-0.787603
1515627144.762,0.259218,0.111464,0.327828,0.968994,-0.62016,-0.809957
1515627144.772,0.164513,0.129924,0.168602,0.630645,-0.676508,-0.853623
1515627144.782,0.136611,0.262061,0.322141,0.620959,-0.929489,-0.798165
1515627144.792,0.17828,0.367125,0.553716,0.713851,-1.550589,-0.61175
1515627144.802,0.299017,0.375902,0.520017,0.649333,-1.692572,-0.461795
1515627144.812,0.517509,0.435228,0.357974,0.430171,-1.059154,-0.257802
1515627144.822,0.792626,0.584449,0.285203,0.191896,0.013555,0.066735
1515627144.832,0.923144,0.678372,0.427779,0.007717,0.594233,0.341252
1515627144.842,0.852064,0.68691,0.642564,-0.275214,0.499981,0.358824
1515627144.852,0.642871,0.644544,0.770626,-0.819053,0.324864,0.175972
1515627144.862,0.461219,0.645197,0.841359,-1.52245,0.365205,0.000457
1515627144.872,0.359605,0.705212,0.835154,-2.386448,0.416443,0.067975
1515627144.882,0.345649,0.726246,0.766847,-3.16515,0.257263,0.360495
1515627144.892,0.482473,0.702859,0.571228,-3.643014,0.176701,0.81025
1515627144.902,0.538532,0.641413,0.444165,-3.856154,0.157179,1.318775
1515627144.912,0.388399,0.54084,0.412042,-3.937514,0.129565,1.758573
1515627144.922,0.137138,0.411465,0.318836,-3.677066,-0.047522,2.207296
1515627144.932,-0.135433,0.348185,-0.055594,-3.281157,-0.217127,2.389318
1515627144.942,-0.368756,0.391257,-0.641634,-3.039869,-0.134864,2.208274
1515627144.952,-0.506405,0.474663,-1.022535,-2.948791,0.477026,1.867499
1515627144.962,-0.709481,0.631359,-0.848109,-3.063344,1.480915,1.473411
1515627144.972,-0.865702,0.879284,-0.32956,-3.270919,1.783542,1.028948
1515627144.982,-0.829019,1.08876,-0.047366,-3.453079,1.433721,0.703958
1515627144.992,-0.744342,1.079323,-0.031917,-3.52471,0.805061,0.596583
1515627145.002,-0.662436,0.836261,-0.009831,-3.522699,0.044115,0.663222
1515627145.012,-0.563407,0.537183,-0.077385,-3.402868,-0.557622,0.749926
1515627145.022,-0.45937,0.360752,-0.169044,-3.062029,-0.841563,0.771159
1515627145.032,-0.387707,0.259501,-0.254646,-2.873623,-0.69764,0.759009
1515627145.042,-0.347054,0.127793,-0.29592,-2.739272,-0.170329,0.742197
1515627145.052,-0.288004,0.001131,-0.319435,-2.676002,1.267542,0.719127
1515627145.062,-0.244919,-0.065966,-0.304795,-2.839513,2.346548,0.610103
1515627145.072,-0.096469,-0.129482,-0.401966,-3.094183,3.154335,0.42451
1515627145.082,0.109019,-0.190735,-0.572789,-3.28874,3.732002,0.342148
1515627145.092,0.254769,-0.236144,-0.693253,-3.575076,3.659021,0.386374
1515627145.102,0.359449,-0.301662,-0.852101,-3.985049,3.819302,0.468248
1515627145.113,0.467682,-0.407548,-0.90744,-4.431355,4.469051,0.374585
,,,,,,
1515627145.123,0.589333,-0.439516,-0.898225,-4.535296,4.803012,0.250948
1515627145.133,0.699723,-0.402638,-0.92985,-3.989237,4.434313,0.336124
1515627145.143,0.602208,-0.460471,-0.963722,-3.266943,4.338388,0.506352
1515627145.153,0.364634,-0.543733,-0.856007,-2.604014,4.316693,0.607965
1515627145.163,0.153115,-0.558627,-0.81137,-2.021782,4.248983,0.587051
1515627145.173,-0.006316,-0.555161,-0.87536,-1.483346,3.933042,0.543462
1515627145.183,-0.102853,-0.593299,-0.938374,-1.02659,3.489599,0.499518
1515627145.193,-0.15524,-0.663953,-0.922601,-0.647737,3.027437,0.460963
1515627145.203,-0.154312,-0.712638,-0.823662,-0.286857,2.505493,0.467778
1515627145.213,-0.133796,-0.746864,-0.688857,0.063024,1.875661,0.534791
1515627145.223,-0.12076,-0.755228,-0.562474,0.458725,1.158704,0.724522
1515627145.233,-0.115604,-0.785149,-0.423193,0.954653,0.535665,1.03079
1515627145.243,-0.075389,-0.785396,-0.262905,1.369576,0.23404,1.412791
1515627145.253,0.008533,-0.686271,-0.047517,1.78071,0.136299,1.770952
1515627145.263,0.093048,-0.53489,0.234997,2.364074,0.272059,1.841265
1515627145.273,0.128468,-0.386874,0.544055,2.594941,0.861317,1.297632
1515627145.283,0.046981,-0.243827,0.8089,1.892019,1.775461,0.161373
1515627145.293,-0.168433,-0.008618,1.077214,0.365172,2.110605,-0.757826
1515627145.303,-0.493222,0.419607,1.248584,-1.002722,1.188936,-0.709284
1515627145.313,-0.73495,1.098114,1.072957,-1.518682,0.576802,-0.111655
1515627145.323,-0.902598,1.856692,0.81625,-1.514281,0.832697,0.249212
1515627145.333,-1.036341,2.143093,0.576322,-1.149221,1.21671,0.52434
1515627145.343,-0.909568,1.533361,0.329289,-0.4517,1.336326,0.735474
1515627145.353,-0.675419,0.511811,0.098277,-0.012104,1.118282,0.64098
1515627145.363,-0.528941,-0.354921,-0.035403,0.152398,0.677699,0.306006
1515627145.373,-0.518104,-0.932049,0.138538,0.279982,-0.441713,0.12374
1515627145.383,-0.512297,-0.955277,0.212695,0.352244,-1.849992,-0.031427
1515627145.393,-0.432824,-0.39625,0.145835,0.461109,-2.944389,-0.320323
1515627145.403,-0.485549,0.212586,-0.043837,0.824773,-2.525205,-0.671257
1515627145.413,-0.701306,0.557428,-0.222825,1.224655,-1.44094,-1.210097
1515627145.423,-0.859948,0.674679,-0.444742,1.277083,-1.209729,-1.538796
1515627145.433,-0.729968,0.36779,-0.830164,1.438613,-1.964017,-1.53837
1515627145.443,-0.390391,-0.217222,-1.151204,2.185763,-2.821696,-1.423696
1515627145.453,-0.068882,-0.557172,-1.09575,3.262048,-4.001863,-1.223103
1515627145.463,0.104504,-0.687562,-0.944077,4.068226,-5.138103,-1.193864
1515627145.473,0.226823,-0.646284,-1.033438,4.359921,-5.623609,-1.422036
1515627145.483,0.328579,-0.415565,-1.212847,4.28176,-5.438886,-1.634261
1515627145.493,0.376842,-0.191096,-1.3487,3.961072,-5.051769,-1.600588
1515627145.503,0.389202,0.034398,-1.442268,3.557863,-3.889049,-1.073265
1515627145.513,0.247943,0.35032,-1.406688,3.213064,-2.005812,-0.443738
1515627145.523,0.06742,0.76544,-1.233553,3.093439,-0.141951,-0.199193
1515627145.533,0.171852,1.149649,-1.00799,3.166461,1.167286,-0.380193
1515627145.543,0.442439,1.302786,-0.704729,4.170348,1.785612,-0.581109
1515627145.553,0.712757,1.167031,-0.038002,5.002719,1.2459,-0.319494
1515627145.563,0.831414,0.730896,0.780681,4.723588,0.088258,0.233326
1515627145.573,0.632794,0.161171,0.793914,3.848671,-0.579402,0.90099
1515627145.583,0.31334,-0.119467,0.658947,3.139567,-0.817016,1.543368
1515627145.593,0.078596,-0.241579,0.580367,3.042161,-1.068245,1.883172
1515627145.603,0.074673,-0.267407,0.509101,3.317479,-2.154081,1.904066
1515627145.613,0.107411,-0.247679,0.296,3.508715,-3.079026,1.831852
1515627145.623,0.040218,-0.314054,-0.001792,3.417769,-3.765123,1.70914
1515627145.633,-0.028023,-0.341442,-0.005129,3.157729,-4.211467,1.685315
1515627145.643,-0.121671,-0.348239,-0.095972,2.533988,-3.522408,1.665261
1515627145.653,-0.343766,-0.421063,0.106094,1.49365,-1.799173,1.072943
1515627145.663,-0.550726,-0.353853,0.610569,0.501499,-0.586655,-0.033828
1515627145.673,-0.532601,-0.102974,0.761429,0.202662,-0.501176,-0.771916
1515627145.683,-0.362777,-0.038003,0.552811,0.527315,-1.005015,-1.005079
1515627145.693,-0.166349,-0.13007,0.385123,1.128159,-1.491395,-0.930296
1515627145.704,0.016883,-0.160718,0.233252,1.375223,-1.922032,-0.888331
1515627145.714,0.201193,-0.105252,-0.030897,1.408257,-1.961652,-0.909368
1515627145.724,0.354597,-0.030451,-0.159539,1.418644,-1.605164,-0.970852
1515627145.734,0.389988,-0.006145,-0.052092,1.476359,-1.014226,-1.042678
1515627145.744,0.289512,0.000079,0.112936,1.496099,-0.403777,-1.132999
1515627145.754,0.160142,0.000592,0.188009,1.429569,0.264744,-1.193276
1515627145.764,0.091139,0.025601,0.243626,1.294871,0.836204,-1.130111
1515627145.774,0.069093,0.075811,0.372807,1.03928,0.724086,-0.926978
1515627145.784,0.069542,0.142603,0.414252,0.723554,-0.239225,-0.668911
1515627145.794,0.102383,0.226689,0.352914,0.614121,-1.395676,-0.482503
1515627145.804,0.160641,0.294602,0.368294,0.616908,-2.08825,-0.444373
1515627145.814,0.318636,0.364193,0.35473,0.515395,-1.915911,-0.417317
1515627145.824,0.58689,0.465763,0.18848,0.550433,-0.902291,-0.180212
1515627145.834,0.78447,0.613559,0.226946,0.630326,0.350754,0.159419
1515627145.844,0.812511,0.741345,0.500815,0.336087,0.900637,0.28342
1515627145.854,0.732923,0.801381,0.699092,-0.243502,0.444091,0.099174
1515627145.864,0.677488,0.788812,0.767627,-0.806197,0.009768,-0.063494
1515627145.874,0.722777,0.754164,0.784334,-1.308057,0.15884,0.038534
1515627145.884,0.713677,0.719952,0.807586,-1.957475,0.746,0.230803
1515627145.894,0.629373,0.667009,0.790169,-2.699281,1.172691,0.411827
1515627145.904,0.57818,0.57664,0.65137,-3.265061,1.127736,0.59229
1515627145.914,0.477791,0.416084,0.530183,-3.583358,0.781144,0.842852
1515627145.924,0.284923,0.271651,0.497464,-3.729091,0.40016,1.153942
1515627145.934,0.072725,0.220725,0.370915,-3.672796,0.29583,1.616432
1515627145.944,-0.117576,0.274424,0.038675,-3.426599,0.269482,2.001606
1515627145.954,-0.277015,0.420999,-0.498792,-3.113611,0.164636,2.121087
1515627145.964,-0.388572,0.537017,-0.956113,-2.873673,0.263598,2.054029
1515627145.974,-0.537236,0.581725,-0.9157,-2.725036,0.727576,1.805022
1515627145.984,-0.738426,0.662316,-0.470464,-2.792503,1.232925,1.4066
1515627145.994,-0.775921,0.855663,-0.052475,-3.053831,1.385287,1.015286
1515627146.004,-0.703787,0.923859,0.1029,-3.341391,1.041195,0.776369
1515627146.014,-0.640281,0.783226,0.060045,-3.478175,0.347644,0.738272
1515627146.024,-0.576587,0.542603,-0.041681,-3.36449,-0.486489,0.779382
1515627146.034,-0.509461,0.352918,-0.133807,-2.986299,-0.926728,0.886786
1515627146.044,-0.440216,0.254575,-0.151155,-2.609631,-0.715893,0.920792
1515627146.054,-0.4046,0.209524,-0.138496,-2.602576,-0.535462,0.870378
1515627146.064,-0.367715,0.150524,-0.246307,-2.564202,0.419355,0.817668
1515627146.074,-0.314392,0.087269,-0.316036,-2.782433,1.064498,0.703306
1515627146.084,-0.236129,0.020276,-0.386645,-2.795594,2.268569,0.551792
1515627146.094,-0.056304,-0.059057,-0.479951,-2.745722,3.250166,0.445001
1515627146.104,0.094147,-0.133467,-0.502104,-2.975816,3.45883,0.386507
1515627146.114,0.228389,-0.237419,-0.679447,-3.373614,3.479608,0.365819
,,,,,,
1515627146.124,0.352362,-0.331431,-0.815065,-3.821661,3.842087,0.356344
1515627146.134,0.473601,-0.400632,-0.859768,-4.198522,4.327914,0.333239
1515627146.144,0.561947,-0.418375,-0.922985,-4.126395,4.247206,0.399855
1515627146.154,0.536266,-0.467064,-0.978543,-3.524305,4.097757,0.536506
1515627146.164,0.36856,-0.532769,-0.91997,-2.817194,4.046876,0.666239
1515627146.174,0.158013,-0.593406,-0.793457,-2.133858,4.033896,0.674416
1515627146.184,-0.042266,-0.634735,-0.772831,-1.580458,4.019104,0.518093
1515627146.194,-0.146309,-0.632854,-0.820547,-1.127644,3.853564,0.330226
1515627146.204,-0.166906,-0.631647,-0.884174,-0.713869,3.455314,0.255038
1515627146.214,-0.169689,-0.691013,-0.863605,-0.348512,2.911028,0.234143
1515627146.224,-0.143531,-0.739728,-0.778675,-0.030616,2.306957,0.316833
1515627146.234,-0.112871,-0.754514,-0.664206,0.284053,1.602209,0.521604
1515627146.244,-0.108915,-0.796739,-0.534474,0.690288,0.90405,0.812691
1515627146.254,-0.090933,-0.840076,-0.388432,1.134252,0.522143,1.217131
1515627146.264,-0.040247,-0.797481,-0.174341,1.4731,0.485338,1.678991
1515627146.274,0.025113,-0.668637,0.114372,1.787779,0.624305,1.948415
1515627146.284,0.054296,-0.506244,0.412523,1.879307,1.208336,1.642692
1515627146.294,-0.006153,-0.319934,0.767772,1.311457,2.059231,0.654798
1515627146.305,-0.21714,-0.035166,1.12086,-0.246748,2.250923,-0.378149
1515627146.315,-0.466392,0.429285,1.279206,-1.344601,1.104268,-0.573122
1515627146.325,-0.686289,1.077043,1.409015,-1.310468,0.173185,-0.099885
1515627146.335,-0.851816,1.806646,1.396285,-1.08717,0.285602,0.309981
1515627146.345,-1.047246,2.184885,0.976819,-0.987,1.059404,0.669514
1515627146.355,-0.920126,1.804535,0.366071,-0.746823,1.745093,0.945237
1515627146.365,-0.5744,0.837525,0.01751,-0.38399,1.748298,0.880394
1515627146.375,-0.304327,-0.17417,-0.036289,-0.074189,1.27333,0.656735
1515627146.385,-0.252568,-0.997937,0.007799,0.029242,0.272402,0.504402
1515627146.395,-0.382171,-1.468961,0.062644,0.201058,-1.073808,0.419864
1515627146.405,-0.387846,-1.086804,0.093024,0.701437,-2.487459,0.0856
1515627146.415,-0.417768,-0.187317,0.003934,0.978397,-2.649685,-0.75503
1515627146.425,-0.677703,0.555907,-0.131934,1.066764,-1.429816,-1.681585
1515627146.435,-1.012247,1.037025,-0.196286,1.238687,-0.914615,-1.979122
1515627146.445,-1.04412,0.961348,-0.577056,1.532106,-1.524408,-1.73275
1515627146.455,-0.61746,0.295506,-1.128633,1.995367,-2.403082,-1.49058
1515627146.465,-0.142256,-0.325738,-1.271914,2.844415,-3.450093,-1.106972
1515627146.475,0.068123,-0.606372,-1.083221,3.823805,-4.402465,-0.881207
1515627146.485,0.170187,-0.671119,-0.916615,4.438834,-5.123198,-0.944428
1515627146.495,0.278231,-0.518556,-1.002972,4.492591,-5.460022,-1.145137
1515627146.505,0.33109,-0.335022,-1.268877,4.31558,-5.166521,-1.151587
1515627146.515,0.339897,-0.181271,-1.386546,4.102123,-4.354868,-0.976732
1515627146.525,0.339062,0.042808,-1.364954,3.878423,-2.832254,-0.580196
1515627146.535,0.205304,0.389693,-1.217126,3.704574,-1.185889,-0.277414
1515627146.545,0.116793,0.767598,-1.058803,3.64841,-0.105493,-0.371299
1515627146.555,0.266107,1.054546,-0.887605,3.895836,0.241677,-0.657853
1515627146.565,0.494678,1.134897,-0.549437,4.255716,-0.328179,-0.678902
1515627146.575,0.705659,0.948199,0.128631,4.107264,-1.011317,-0.29753
1515627146.585,0.62969,0.487298,0.59745,3.653951,-1.010555,0.353002
1515627146.595,0.287477,0.115264,0.736554,3.320025,-0.631812,1.004133
1515627146.605,0.050433,-0.056592,0.773858,3.185629,-0.23743,1.377648
1515627146.615,0.003106,-0.153038,0.655999,3.205464,-0.435007,1.398509
1515627146.625,0.026214,-0.163846,0.435956,3.336504,-1.737085,1.276359
1515627146.635,0.047475,-0.176262,0.084346,3.479373,-3.372117,1.154277
1515627146.645,-0.004461,-0.258088,-0.284864,3.188341,-4.412461,1.108878
1515627146.655,-0.033772,-0.325643,-0.343102,2.752327,-4.480378,1.204566
1515627146.665,-0.073919,-0.350616,-0.194554,2.164047,-2.871053,1.260502
1515627146.675,-0.219045,-0.411506,0.392493,1.249035,-0.994248,0.764995
1515627146.685,-0.343374,-0.290481,0.965122,0.482085,-0.428943,0.060188
1515627146.695,-0.178941,-0.074176,0.891988,0.348331,-1.09106,-0.451648
1515627146.705,0.064821,0.020346,0.623967,0.733515,-2.197513,-0.540253
1515627146.715,0.161087,-0.042742,0.434467,1.038615,-2.928548,-0.432594
1515627146.725,0.208328,-0.134288,0.154175,1.096472,-2.921648,-0.374369
1515627146.735,0.270117,-0.136376,-0.12974,1.121902,-2.31327,-0.494445
1515627146.745,0.317888,-0.118315,-0.196525,1.237278,-1.390538,-0.673063
1515627146.755,0.264345,-0.042163,-0.083548,1.553045,-0.354781,-0.899999
1515627146.765,0.134105,-0.008198,0.14316,1.851354,0.697236,-1.169685
1515627146.775,0.005607,0.036721,0.282786,2.064264,1.890356,-1.354723
1515627146.785,-0.08945,0.082863,0.462837,2.108334,2.768259,-1.389524
1515627146.795,-0.084275,0.125398,0.698851,1.36063,2.135669,-1.247339
1515627146.805,0.06219,0.199494,0.65148,0.432726,0.233254,-1.016891
1515627146.815,0.282509,0.332872,0.314846,0.330033,-1.281902,-0.777319
1515627146.825,0.416831,0.494589,0.318836,0.652116,-1.73823,-0.535401
1515627146.835,0.418973,0.518894,0.593971,0.644278,-1.696227,-0.318111
1515627146.845,0.423226,0.453265,0.471817,0.409088,-1.037942,-0.181314
1515627146.855,0.503403,0.515559,0.314691,0.194097,-0.051147,-0.0538
1515627146.865,0.561368,0.644676,0.413717,0.004788,0.791431,0.078855
1515627146.875,0.567484,0.696215,0.579985,-0.382752,0.937739,0.148172
1515627146.885,0.544906,0.643086,0.693008,-1.058549,0.540809,0.189798
1515627146.895,0.494295,0.616304,0.682857,-1.767068,0.268518,0.351792
1515627146.905,0.40686,0.696846,0.677997,-2.460265,0.316085,0.549142
1515627146.916,0.36772,0.746509,0.692785,-3.141247,0.539746,0.706775
1515627146.926,0.395515,0.655068,0.639917,-3.729252,0.280023,1.025738
1515627146.936,0.315047,0.508599,0.498368,-3.993246,-0.062149,1.445223
1515627146.946,0.105263,0.384448,0.394628,-3.814964,-0.243016,1.906789
1515627146.956,-0.129076,0.295622,0.331629,-3.463127,-0.376507,2.222583
1515627146.966,-0.313419,0.31202,-0.016541,-3.240481,-0.66821,2.241302
1515627146.976,-0.337417,0.419455,-0.682164,-3.13455,-0.810432,2.132404
1515627146.986,-0.333407,0.493992,-1.097267,-3.132227,-0.065194,1.968857
1515627146.996,-0.554163,0.547535,-0.850989,-3.118393,1.311418,1.534994
1515627147.006,-0.827002,0.786737,-0.184951,-3.147954,2.036963,0.939708
1515627147.016,-0.888734,1.058561,0.22541,-3.317979,1.674391,0.575418
1515627147.026,-0.839142,0.968497,0.142282,-3.468232,0.619354,0.503975
1515627147.036,-0.784464,0.628139,-0.031705,-3.430771,-0.33589,0.537363
1515627147.046,-0.693494,0.352894,-0.092897,-3.267204,-1.006062,0.584958
1515627147.056,-0.571068,0.211786,-0.118243,-2.830222,-0.417787,0.576255
1515627147.066,-0.455981,0.175034,-0.123551,-2.569276,0.2115,0.448435
1515627147.076,-0.343485,0.148753,-0.159665,-2.680293,0.648934,0.344236
1515627147.086,-0.233535,0.062379,-0.344709,-2.929237,1.15264,0.150217
1515627147.096,-0.055098,-0.003831,-0.464744,-3.178504,1.705544,-0.07878
1515627147.106,0.131147,-0.070315,-0.51596,-3.161443,2.499366,-0.122714
1515627147.116,0.242212,-0.178961,-0.513832,-3.207482,2.778686,0.02997
,,,,,,
1515627147.126,0.306403,-0.288078,-0.619103,-3.478868,3.144775,0.195148
1515627147.136,0.39168,-0.359186,-0.714392,-3.860016,3.428736,0.245845
1515627147.146,0.510658,-0.394999,-0.775929,-4.207928,3.883537,0.1921
1515627147.156,0.549684,-0.402925,-0.826493,-4.140221,3.954636,0.176119
1515627147.166,0.526163,-0.41271,-0.856447,-3.618907,3.912268,0.352632
1515627147.176,0.371764,-0.462376,-0.831218,-2.945957,3.88261,0.583192
1515627147.186,0.18493,-0.518364,-0.773835,-2.273844,4.033597,0.71426
1515627147.196,0.044304,-0.542282,-0.796201,-1.704556,4.213618,0.656766
1515627147.206,-0.006987,-0.54929,-0.789745,-1.217119,4.124419,0.545185
1515627147.216,-0.024489,-0.581618,-0.836685,-0.829122,3.840534,0.458364
1515627147.226,-0.037299,-0.652271,-0.844279,-0.488909,3.361496,0.436325
1515627147.236,-0.038231,-0.720511,-0.764421,-0.192429,2.755679,0.444208
1515627147.246,-0.023883,-0.777095,-0.654284,0.126324,1.926783,0.436687
1515627147.256,-0.003387,-0.801135,-0.527884,0.578119,1.019765,0.562547
1515627147.266,-0.004396,-0.825471,-0.363423,1.186267,0.293574,0.869812
1515627147.276,0.006701,-0.835028,-0.096936,1.856431,-0.027882,1.264401
1515627147.286,0.066825,-0.717976,0.253537,2.493408,-0.161133,1.59534
1515627147.296,0.103119,-0.549942,0.607067,2.960057,-0.036232,1.62907
1515627147.306,0.072253,-0.4082,0.845254,2.721081,0.53893,1.104229
1515627147.316,-0.084102,-0.265849,0.913605,1.299856,1.511063,-0.031955
1515627147.326,-0.36674,0.029644,1.02622,-0.78456,1.861329,-0.885397
1515627147.336,-0.746081,0.680872,1.085498,-1.88509,1.253786,-0.531195
1515627147.346,-1.045264,1.661851,0.881143,-1.934712,1.173949,0.15054
1515627147.356,-1.14187,2.456666,0.688828,-1.60796,1.422373,0.526974
1515627147.366,-0.915694,2.34292,0.450444,-0.921358,1.737204,0.768463
1515627147.376,-0.639032,1.170912,0.284905,-0.228984,1.770663,0.590548
1515627147.386,-0.387874,-0.085609,0.266469,0.300398,0.824022,0.290179
1515627147.396,-0.222999,-0.999934,0.207639,0.523929,-0.892046,0.316812
1515627147.406,-0.304848,-1.571365,-0.006557,0.637581,-2.770721,0.367125
1515627147.416,-0.411429,-1.355949,-0.228921,1.021612,-3.747184,0.012724
1515627147.426,-0.513101,-0.555602,-0.325952,1.28402,-3.142208,-0.82652
1515627147.436,-0.838841,0.170476,-0.196732,1.005516,-1.745157,-1.703637
1515627147.446,-1.210602,0.745838,-0.033402,0.984561,-1.323793,-2.282821
1515627147.456,-1.054742,1.03042,-0.241006,1.382515,-1.939766,-2.3057
1515627147.466,-0.401973,0.651137,-0.933365,1.974027,-2.651897,-2.02308
1515627147.476,0.09652,-0.000402,-1.201933,2.818973,-3.326519,-1.642506
1515627147.486,0.289937,-0.348806,-1.104934,3.520588,-3.726575,-1.413933
1515627147.496,0.382084,-0.461426,-0.973505,3.713913,-3.787871,-1.324494
1515627147.507,0.4591,-0.359489,-1.014312,3.804135,-3.455663,-0.978307
1515627147.517,0.504539,-0.255444,-1.198767,3.672149,-3.059649,-0.458865
1515627147.527,0.502581,-0.118852,-1.290459,3.350318,-2.385767,-0.032338
1515627147.537,0.458643,0.185998,-1.254933,3.128665,-1.42804,0.18658
1515627147.547,0.441588,0.560082,-1.076235,3.175572,-0.518013,0.111455
1515627147.557,0.512976,0.910723,-0.780561,3.494896,0.051196,-0.030777
1515627147.567,0.59974,1.081171,-0.384564,3.88968,0.293597,0.100462
1515627147.577,0.554397,0.91874,0.030406,3.967536,0.212911,0.46958
1515627147.587,0.426853,0.509817,0.335931,3.59467,-0.265258,0.929887
1515627147.597,0.202793,0.086594,0.466026,3.067566,-0.653981,1.421656
1515627147.607,-0.066981,-0.180891,0.504292,2.733938,-0.704173,1.7625
1515627147.617,-0.225521,-0.293804,0.52148,2.85375,-1.052112,1.887344
1515627147.627,-0.274074,-0.308104,0.481235,3.290064,-2.143975,1.803664
1515627147.637,-0.281182,-0.315294,0.290708,3.714759,-3.123332,1.59883
1515627147.647,-0.296134,-0.33394,0.124949,3.640088,-3.600899,1.300253
1515627147.657,-0.386376,-0.280939,0.132427,3.298114,-3.835739,1.038692
1515627147.667,-0.391207,-0.202486,0.102898,2.646936,-3.43243,0.696792
1515627147.677,-0.394268,-0.217513,0.162555,1.951483,-2.775703,0.273229
1515627147.687,-0.326771,-0.165353,0.189567,1.390143,-1.974423,-0.246197
1515627147.697,-0.179629,-0.120969,0.171227,1.026782,-1.144607,-0.748235
1515627147.707,-0.028829,-0.182251,0.242816,0.91473,-0.535886,-1.024375
1515627147.717,0.090685,-0.229033,0.303853,1.032576,-0.264543,-1.036937
1515627147.727,0.167497,-0.198095,0.273697,1.279183,-0.282495,-0.930736
1515627147.737,0.268891,-0.132734,0.204654,1.492572,-0.478461,-0.808505
1515627147.747,0.367084,-0.069492,0.129284,1.645654,-0.864893,-0.722793
1515627147.757,0.394888,0.002336,0.065837,1.775969,-1.138092,-0.634838
1515627147.767,0.331436,0.066434,0.080457,1.93538,-0.877937,-0.572395
1515627147.777,0.215677,0.116595,0.297193,2.008722,-0.329011,-0.55366
1515627147.787,0.027041,0.136546,0.506817,1.779308,0.082499,-0.652983
1515627147.797,-0.128704,0.098128,0.518101,1.193076,0.068835,-0.858156
1515627147.807,-0.211262,0.067035,0.368772,0.638059,-0.186241,-1.037157
1515627147.817,-0.220191,0.126771,0.281125,0.51588,-0.512968,-1.045069
1515627147.827,-0.130844,0.252727,0.409374,0.654692,-1.080001,-0.844073
1515627147.837,0.032159,0.328803,0.50584,0.674843,-1.690069,-0.625483
1515627147.847,0.298565,0.392967,0.392159,0.52839,-1.703405,-0.501631
1515627147.857,0.661552,0.529509,0.246759,0.361382,-0.943287,-0.320005
1515627147.867,0.982061,0.707896,0.234902,0.312166,0.187737,0.067706
1515627147.877,1.098229,0.765613,0.3742,0.389851,1.051917,0.563585
1515627147.887,0.950771,0.66311,0.610784,0.06221,1.033308,0.700147
1515627147.897,0.691429,0.52766,0.759865,-0.675539,0.511863,0.447753
1515627147.907,0.489605,0.528274,0.752077,-1.327465,0.261667,0.272927
1515627147.917,0.28161,0.628656,0.805126,-1.92622,0.312573,0.245664
1515627147.927,0.141805,0.691926,0.918717,-2.682042,0.329194,0.246212
1515627147.937,0.271197,0.702868,0.821629,-3.430287,0.061333,0.436495
1515627147.947,0.399686,0.58366,0.564003,-3.85554,-0.05859,0.749376
1515627147.957,0.389788,0.434744,0.448008,-3.88387,-0.056494,1.135603
1515627147.967,0.293755,0.297262,0.499124,-3.70864,0.06124,1.643945
1515627147.977,0.149065,0.245663,0.234173,-3.528163,0.179986,2.158743
1515627147.987,0.008711,0.362817,-0.366451,-3.260314,0.175452,2.358958
1515627147.997,-0.091554,0.498185,-0.938963,-2.94822,0.429689,2.300754
1515627148.007,-0.232882,0.496322,-1.023501,-2.825885,1.236136,2.105848
1515627148.017,-0.514387,0.515105,-0.588897,-2.926405,1.970202,1.652436
1515627148.027,-0.710597,0.735221,-0.098163,-3.240868,2.020162,1.037567
1515627148.037,-0.751122,0.987465,0.035516,-3.579965,1.42119,0.544774
1515627148.047,-0.767678,1.009118,-0.047599,-3.756734,0.422021,0.408244
1515627148.057,-0.756302,0.770158,-0.135897,-3.683539,-0.453682,0.515813
1515627148.067,-0.717201,0.4784,-0.144211,-3.447795,-1.103352,0.674032
1515627148.077,-0.62485,0.304905,-0.113385,-2.968149,-0.864498,0.744515
1515627148.087,-0.515746,0.235284,-0.150843,-2.449161,-0.096442,0.735284
1515627148.097,-0.411491,0.205088,-0.210916,-2.392888,0.669105,0.775853
1515627148.107,-0.293479,0.113155,-0.336933,-2.676858,1.383704,0.756779
1515627148.118,-0.068953,0.028044,-0.47855,-2.936417,2.371382,0.705921
1515627148.128,0.171853,-0.054989,-0.481143,-3.014869,3.096103,0.772417
,,,,,,
1515627148.138,0.311798,-0.150972,-0.464185,-3.112529,3.201989,0.88342
1515627148.148,0.388914,-0.236102,-0.577371,-3.317338,3.269253,0.946145
1515627148.158,0.441152,-0.293848,-0.709312,-3.713452,4.047611,0.901447
1515627148.168,0.461949,-0.330843,-0.773187,-4.04843,4.706664,0.681367
1515627148.178,0.508597,-0.352191,-0.873953,-4.176962,4.875647,0.48765
1515627148.188,0.489174,-0.380186,-1.025659,-3.714438,4.634398,0.588231
1515627148.198,0.328637,-0.439223,-1.023493,-3.063263,4.713965,0.741165
1515627148.208,0.133852,-0.517094,-0.892952,-2.321959,4.675678,0.867093
1515627148.218,0.001062,-0.548728,-0.89685,-1.651052,4.553937,0.880072
1515627148.228,-0.108396,-0.577258,-0.963102,-1.048577,4.274119,0.757509
1515627148.238,-0.147896,-0.618189,-1.014205,-0.480286,3.753471,0.613478
1515627148.248,-0.170588,-0.674205,-0.995392,-0.051873,3.096992,0.520543
1515627148.258,-0.184265,-0.776677,-0.896617,0.291027,2.110197,0.464851
1515627148.268,-0.186526,-0.887362,-0.778937,0.587589,1.151252,0.466202
1515627148.278,-0.19277,-0.94463,-0.605989,0.910818,0.586284,0.650256
1515627148.288,-0.135854,-0.952606,-0.297217,1.460794,0.373502,1.003305
1515627148.298,-0.003094,-0.840685,0.028994,2.07291,0.540479,1.255104
1515627148.308,0.088839,-0.674031,0.313874,2.386801,1.55288,0.997184
1515627148.318,0.104483,-0.466081,0.624991,1.871774,2.921865,0.036192
1515627148.328,-0.066344,-0.133769,0.919495,0.473736,3.310779,-0.939843
1515627148.338,-0.409849,0.384903,1.068755,-0.802108,1.80193,-0.957163
1515627148.348,-0.711207,0.969336,0.957806,-1.492857,0.326368,-0.252777
1515627148.358,-0.902632,1.444722,0.788516,-1.713139,-0.331705,0.430251
1515627148.368,-0.967957,1.78388,0.667604,-1.719169,-0.360382,0.722929
1515627148.378,-0.92076,1.648913,0.428284,-1.181862,0.052056,0.778726
1515627148.388,-0.806443,1.072564,0.328641,-0.370259,0.561457,0.660316
1515627148.398,-0.604304,0.330561,0.233731,0.045539,0.578933,0.372529
1515627148.408,-0.254025,-0.493961,0.099213,0.047476,0.383933,0.295211
1515627148.418,-0.154422,-1.31064,0.124795,0.4385,-0.51072,0.350099
1515627148.428,-0.224429,-1.710241,0.115376,1.340249,-2.211151,0.131498
1515627148.438,-0.238638,-1.179393,-0.14718,2.171035,-3.420645,-0.635769
1515627148.448,-0.483141,-0.203313,-0.394997,2.227631,-3.368627,-1.627403
1515627148.458,-0.9439,0.617607,-0.402722,1.287986,-2.154881,-1.924209
1515627148.468,-1.428464,0.995574,-0.093019,0.767894,-1.086891,-1.877825
1515627148.478,-1.423101,1.11115,0.005292,1.078034,-1.046987,-1.967669
1515627148.488,-0.746873,0.931264,-0.444544,1.86381,-1.989546,-1.749525
1515627148.498,-0.092577,0.32889,-0.859338,2.720359,-3.259227,-1.475209
1515627148.508,0.26623,-0.272558,-1.112723,3.428523,-4.191392,-1.34422
1515627148.518,0.39936,-0.489081,-1.151712,3.876176,-4.653595,-1.183875
1515627148.528,0.378035,-0.524037,-1.079055,4.182577,-4.651418,-0.830892
1515627148.538,0.359832,-0.461081,-1.13897,4.384093,-4.454556,-0.426323
1515627148.548,0.385786,-0.332003,-1.232482,4.282341,-4.137684,-0.22839
1515627148.558,0.420231,-0.067679,-1.286625,3.995713,-3.392592,-0.107889
1515627148.568,0.367926,0.255935,-1.200307,3.771866,-2.207926,-0.110787
1515627148.578,0.33592,0.590626,-1.006471,3.661309,-1.106409,-0.354341
1515627148.588,0.421587,0.907926,-0.798263,3.826063,-0.43422,-0.683374
1515627148.598,0.56239,1.076132,-0.422354,4.175018,-0.402452,-0.648185
1515627148.608,0.681106,0.984944,0.251387,3.887912,-0.654914,-0.210567
1515627148.618,0.568501,0.560552,0.691901,3.157667,-0.703527,0.425815
1515627148.628,0.258364,0.16058,0.768747,2.525177,-0.472109,1.043033
1515627148.638,-0.007314,-0.053934,0.733943,2.315605,-0.243308,1.305391
1515627148.648,-0.042177,-0.117573,0.641453,2.61671,-0.649862,1.378971
1515627148.658,-0.030164,-0.116236,0.480023,3.18019,-1.991457,1.390743
1515627148.668,-0.035744,-0.198164,0.188898,3.580672,-3.313918,1.419787
1515627148.678,-0.106023,-0.298553,-0.071827,3.590085,-4.112717,1.305351
1515627148.688,-0.164576,-0.305884,-0.073173,3.248697,-4.370611,1.237532
1515627148.698,-0.150932,-0.272713,-0.041603,2.589986,-3.793133,1.151715
1515627148.708,-0.235316,-0.305714,0.078326,2.028304,-2.674222,0.726019
1515627148.719,-0.271815,-0.331302,0.33936,1.484125,-1.439422,0.067715
1515627148.729,-0.221361,-0.278528,0.532077,1.079454,-0.674772,-0.649089
1515627148.739,-0.106576,-0.220834,0.541844,0.877732,-0.548364,-1.051488
1515627148.749,-0.018761,-0.215697,0.395216,0.852129,-0.812111,-1.256096
1515627148.759,0.052604,-0.179234,0.21525,0.876065,-1.10961,-1.353733
1515627148.769,0.175589,-0.072724,0.026503,0.909762,-1.093946,-1.317068
1515627148.779,0.283762,0.000432,-0.054228,1.070676,-0.719706,-1.235047
1515627148.789,0.345541,0.04671,0.052501,1.457361,-0.051281,-1.185511
1515627148.799,0.352713,0.11574,0.298553,1.886929,0.63612,-1.150302
1515627148.809,0.284308,0.17428,0.53817,2.050542,0.97293,-1.04708
1515627148.819,0.203258,0.17436,0.552097,1.736166,0.869932,-0.905323
1515627148.829,0.169063,0.135209,0.442424,0.95113,0.316671,-0.803781
1515627148.839,0.149294,0.179393,0.38894,0.435793,-0.446241,-0.744438
1515627148.849,0.1421,0.328458,0.39327,0.471489,-1.06342,-0.663059
1515627148.859,0.177617,0.443434,0.498288,0.590547,-1.331102,-0.608232
1515627148.869,0.319316,0.485442,0.512741,0.433728,-1.116847,-0.565724
1515627148.879,0.567785,0.50585,0.344032,0.140604,-0.357106,-0.346215
1515627148.889,0.787308,0.564549,0.251568,0.015043,0.775278,0.101281
1515627148.899,0.814487,0.64401,0.451442,-0.012974,1.197434,0.578403
1515627148.909,0.637052,0.689631,0.703661,-0.391965,0.598771,0.710232
1515627148.919,0.420967,0.64371,0.763821,-1.07205,-0.112105,0.521777
1515627148.929,0.25397,0.639973,0.775621,-1.760024,-0.325532,0.268905
1515627148.939,0.090862,0.657137,0.872784,-2.500959,-0.09087,0.123421
1515627148.949,0.049643,0.611205,0.911611,-3.254796,0.185896,0.174934
1515627148.959,0.201627,0.543038,0.720997,-3.860533,-0.046987,0.477802
1515627148.969,0.345264,0.483766,0.482452,-4.060616,-0.375715,0.901297
1515627148.979,0.368309,0.417023,0.471103,-3.88226,-0.450318,1.491016
1515627148.989,0.221325,0.359166,0.393333,-3.634043,-0.246895,2.077203
1515627148.999,0.06855,0.357642,-0.077468,-3.309984,-0.17089,2.33268
1515627149.009,0.00927,0.394688,-0.809176,-2.974841,-0.022637,2.337219
1515627149.019,-0.088984,0.38194,-1.118377,-2.830358,0.613684,2.245294
1515627149.029,-0.358952,0.367257,-0.769117,-2.895934,1.563717,1.909116
1515627149.039,-0.589187,0.595639,-0.17291,-3.148629,2.129412,1.370234
1515627149.049,-0.58866,0.965053,0.205549,-3.474629,1.889979,0.855402
1515627149.059,-0.555162,1.118727,0.170553,-3.670774,1.191045,0.627019
1515627149.069,-0.536718,0.965303,-0.004665,-3.648946,0.209082,0.704854
1515627149.079,-0.51715,0.658498,-0.141517,-3.359982,-0.56478,0.888846
1515627149.089,-0.474074,0.420424,-0.226661,-2.703446,0.048491,0.957414
1515627149.099,-0.43202,0.315878,-0.148601,-2.377291,0.693913,0.98378
1515627149.109,-0.387941,0.235903,-0.145027,-2.625287,0.922705,1.002877
1515627149.119,-0.281584,0.118429,-0.402584,-2.981854,1.60206,0.815619
1515627149.129,-0.085278,0.047684,-0.500106,-3.121326,2.811586,0.552919
,,,,,,
1515627149.139,0.091576,0.001253,-0.431843,-3.108741,3.745482,0.425283
1515627149.149,0.195996,-0.067701,-0.433258,-3.214632,3.913557,0.459726
1515627149.159,0.256673,-0.160585,-0.594113,-3.410626,3.732086,0.548329
1515627149.169,0.323687,-0.253289,-0.743503,-3.726047,3.824594,0.61407
1515627149.179,0.351877,-0.316386,-0.83092,-4.01032,4.200094,0.541651
1515627149.189,0.380424,-0.335277,-0.899296,-4.158904,4.524776,0.407861
1515627149.199,0.412196,-0.348311,-0.982934,-3.816224,4.52651,0.503572
1515627149.209,0.311956,-0.392261,-1.014952,-3.115881,4.305644,0.749781
1515627149.219,0.129455,-0.448502,-0.91274,-2.394121,4.145669,0.931497
1515627149.229,-0.037188,-0.467862,-0.880099,-1.817872,4.088757,0.883925
1515627149.239,-0.124733,-0.474713,-0.902602,-1.294574,3.812821,0.710372
1515627149.249,-0.149335,-0.525659,-0.970344,-0.784101,3.307653,0.515647
1515627149.259,-0.163151,-0.622464,-0.967449,-0.353917,2.890237,0.39693
1515627149.269,-0.161789,-0.744805,-0.873572,0.051415,2.346911,0.330728
1515627149.279,-0.142652,-0.853278,-0.756303,0.457181,1.708333,0.352592
1515627149.289,-0.126363,-0.919601,-0.655335,0.858928,1.11324,0.45975
1515627149.299,-0.111223,-0.977042,-0.516747,1.272974,0.774942,0.642478
1515627149.309,-0.043054,-0.965202,-0.298186,1.743928,0.739994,0.93129
1515627149.319,0.052176,-0.831062,0.028113,2.293394,0.858418,1.147027
1515627149.329,0.098425,-0.652659,0.418008,2.804282,1.110784,0.944251
1515627149.340,0.054816,-0.459608,0.733441,2.670865,1.658166,0.226772
1515627149.350,-0.118048,-0.212402,0.945969,1.434669,1.781813,-0.541632
1515627149.360,-0.445995,0.175446,1.09491,-0.518772,0.945999,-0.788431
1515627149.370,-0.791157,0.781179,0.929081,-1.852227,0.159441,-0.370554
1515627149.380,-1.045865,1.581367,0.747274,-2.115366,0.020946,0.078391
1515627149.390,-1.305306,2.236728,0.68151,-1.816536,0.635976,0.313047
1515627149.400,-1.217232,2.102563,0.56936,-1.155277,1.148093,0.631578
1515627149.410,-0.590305,1.158627,0.411764,-0.391626,1.309923,0.853236
1515627149.420,-0.065069,0.020393,0.192749,0.111191,1.277715,0.898577
1515627149.430,0.053928,-0.896998,0.144958,0.615972,0.929354,0.723489
1515627149.440,-0.043331,-1.320956,0.367892,1.14455,-0.33498,0.670146
1515627149.450,-0.115026,-1.108344,0.382818,1.565271,-2.175829,0.619921
1515627149.460,-0.165877,-0.615643,0.169268,2.113044,-3.434396,0.399638
1515627149.470,-0.267638,-0.118255,-0.148712,2.182401,-3.648081,0.035543
1515627149.480,-0.467376,0.272984,-0.484319,1.110776,-3.012959,-0.538512
1515627149.490,-0.782042,0.67372,-0.610526,0.655381,-1.701926,-1.193357
1515627149.500,-0.9682,0.967985,-0.344445,0.864189,-1.547668,-1.465063
1515627149.510,-0.836288,0.674044,-0.572339,1.421985,-2.160931,-1.330532
1515627149.520,-0.535458,-0.058002,-0.967329,2.118384,-2.844279,-1.244624
1515627149.530,-0.2625,-0.484502,-0.951391,3.025868,-3.108656,-1.149418
1515627149.540,-0.075401,-0.625544,-0.769788,3.745511,-3.193213,-1.183646
1515627149.550,0.113419,-0.612449,-0.778144,4.120964,-3.040211,-1.081699
1515627149.560,0.267669,-0.476387,-0.997483,4.111187,-3.068451,-0.912593
1515627149.570,0.360074,-0.293096,-1.214776,3.884486,-2.794826,-0.621534
1515627149.580,0.372972,-0.000139,-1.29604,3.704802,-1.814653,-0.176275
1515627149.590,0.284461,0.345397,-1.165927,3.583575,-0.766939,0.058002
1515627149.600,0.29356,0.685512,-1.013767,3.520126,-0.068362,-0.062835
1515627149.610,0.447324,0.884946,-0.85322,3.624856,0.101549,-0.347453
1515627149.620,0.593666,0.901517,-0.578602,4.189378,-0.879453,-0.330175
1515627149.630,0.694802,0.718987,0.116017,4.14669,-1.873997,0.125947
1515627149.640,0.472484,0.307861,0.763815,3.581697,-1.933482,0.82285
1515627149.650,0.028174,-0.013037,0.846331,2.931927,-1.296393,1.400782
1515627149.660,-0.16651,-0.109268,0.785348,2.55956,-0.838,1.597008
1515627149.670,-0.099071,-0.085338,0.597374,2.500261,-1.505482,1.58975
1515627149.680,-0.059029,-0.083177,0.250349,2.323835,-2.087501,1.456782
1515627149.690,-0.085125,-0.155101,-0.014015,2.219483,-2.951571,1.299222
1515627149.700,-0.123587,-0.227777,-0.042682,2.346517,-3.870859,1.255008
1515627149.710,-0.156295,-0.265495,-0.146029,2.370337,-3.687411,1.22717
1515627149.720,-0.239657,-0.314934,0.05022,2.195201,-2.741462,1.048331
1515627149.730,-0.360022,-0.334913,0.396263,1.792918,-1.662007,0.627612
1515627149.740,-0.341597,-0.26858,0.52621,1.369222,-1.33186,0.028362
1515627149.750,-0.195696,-0.203903,0.440658,1.078833,-1.48618,-0.483621
1515627149.760,-0.022271,-0.202736,0.234222,0.9885,-1.589112,-0.796013
1515627149.770,0.057102,-0.200391,0.148956,1.026876,-1.56429,-0.955202
1515627149.780,0.091413,-0.148414,0.066951,1.144164,-1.373768,-1.045786
1515627149.790,0.139877,-0.091028,0.019405,1.343049,-1.051506,-1.127483
1515627149.800,0.195694,-0.002818,0.060342,1.672745,-0.688582,-1.178714
1515627149.810,0.229456,0.077319,0.177006,2.019212,-0.166837,-1.217486
1515627149.820,0.230204,0.113651,0.325815,2.214155,0.543279,-1.140296
1515627149.830,0.192043,0.125545,0.485444,2.115221,1.148203,-0.943473
1515627149.840,0.143263,0.110979,0.602693,1.349728,0.956308,-0.78402
1515627149.850,0.150556,0.149397,0.580496,0.464081,-0.127485,-0.724906
1515627149.860,0.225212,0.273877,0.353994,0.342409,-0.997678,-0.612209
1515627149.870,0.286461,0.401735,0.313732,0.613146,-1.358653,-0.389751
1515627149.880,0.290681,0.429703,0.554854,0.727886,-1.560556,-0.215482
1515627149.890,0.344749,0.395636,0.519748,0.563471,-1.39529,-0.184947
1515627149.900,0.475981,0.4404,0.3553,0.255947,-0.81081,-0.171738
1515627149.910,0.60807,0.532092,0.342887,-0.001815,0.014019,-0.022929
1515627149.920,0.6529,0.563692,0.442434,-0.166419,0.72385,0.196891
1515627149.931,0.587536,0.58412,0.633154,-0.419049,0.790102,0.335711
1515627149.941,0.476349,0.627039,0.757716,-1.004326,0.354245,0.356995
1515627149.951,0.336343,0.687913,0.745451,-1.838919,0.09627,0.309864
1515627149.961,0.229903,0.768362,0.750857,-2.650972,0.142066,0.30877
1515627149.971,0.203898,0.793831,0.760503,-3.28158,0.30051,0.409281
1515627149.981,0.215908,0.667401,0.753374,-3.645339,0.183598,0.660082
1515627149.991,0.217285,0.483113,0.737212,-3.851251,-0.281575,1.058547
1515627150.001,0.18846,0.378244,0.574473,-3.802449,-0.348862,1.625434
1515627150.011,0.068916,0.377883,0.239433,-3.584042,-0.217405,2.093876
1515627150.021,-0.073954,0.458653,-0.213587,-3.269806,-0.383207,2.253631
1515627150.031,-0.10437,0.531887,-0.795181,-3.015728,-0.430751,2.260785
1515627150.041,-0.211174,0.451731,-1.079365,-2.864506,0.322007,2.112899
1515627150.051,-0.480375,0.390912,-0.699152,-2.791011,1.470006,1.651283
1515627150.061,-0.722615,0.62752,-0.059586,-2.917028,2.151546,1.001441
1515627150.071,-0.736096,0.976062,0.267873,-3.287326,1.828077,0.497502
1515627150.081,-0.689754,1.038464,0.151209,-3.561738,0.809378,0.327783
1515627150.091,-0.670034,0.819234,-0.083119,-3.425849,-0.325891,0.405401
1515627150.101,-0.660121,0.510875,-0.163017,-3.130896,-0.90255,0.630606
1515627150.111,-0.603499,0.277041,-0.162568,-2.793822,-0.269123,0.713503
,,,,,,
1515627150.121,-0.478027,0.194119,-0.090212,-2.783213,0.355351,0.594368
1515627150.131,-0.345249,0.172084,-0.171637,-3.012235,0.869502,0.429377
1515627150.141,-0.248112,0.119142,-0.372479,-3.165451,1.611735,0.18834
1515627150.151,-0.073086,0.036283,-0.477094,-3.218112,2.724424,0.001961
1515627150.161,0.08931,-0.063717,-0.450621,-3.257249,3.313865,-0.073165
1515627150.171,0.203085,-0.173679,-0.525703,-3.50511,3.137347,-0.08953
1515627150.181,0.288301,-0.309411,-0.714964,-3.825853,3.396344,-0.028609
1515627150.191,0.366062,-0.438449,-0.735422,-4.142118,3.763236,-0.017314
1515627150.201,0.451998,-0.443257,-0.754297,-4.23772,4.182038,-0.003187
1515627150.211,0.532324,-0.409723,-0.84931,-4.015223,4.25382,0.11581
1515627150.221,0.534314,-0.420995,-0.871779,-3.376848,3.860452,0.380917
1515627150.231,0.363508,-0.467651,-0.863801,-2.701202,3.6911,0.584409
1515627150.241,0.14882,-0.50642,-0.781672,-2.159105,3.617343,0.535303
1515627150.251,-0.00371,-0.531659,-0.775724,-1.680361,3.367303,0.361303
1515627150.261,-0.109385,-0.565729,-0.851145,-1.210889,2.992216,0.270891
1515627150.271,-0.203751,-0.659764,-0.868372,-0.794436,2.64601,0.260873
1515627150.281,-0.234428,-0.751976,-0.789397,-0.421198,2.295658,0.298241
1515627150.291,-0.204797,-0.790765,-0.696181,-0.028759,1.923609,0.40605
1515627150.301,-0.166596,-0.786827,-0.596744,0.354076,1.44134,0.630506
1515627150.311,-0.14829,-0.796405,-0.483305,0.801914,0.890214,0.901299
1515627150.321,-0.11759,-0.806656,-0.35858,1.297122,0.475269,1.195492
1515627150.331,-0.045716,-0.745332,-0.190557,1.752081,0.310181,1.508159
1515627150.341,0.056397,-0.603239,0.041718,2.174748,0.353764,1.696557
1515627150.351,0.13552,-0.443248,0.332127,2.503531,0.533514,1.546716
1515627150.361,0.143857,-0.307821,0.586446,2.358469,1.105489,0.835571
1515627150.371,0.05745,-0.162268,0.792718,1.319545,1.921505,-0.297613
1515627150.381,-0.147387,0.062628,1.145557,-0.02632,1.885795,-1.057233
1515627150.391,-0.453875,0.449666,1.451919,-0.824913,0.7401,-0.840742
1515627150.401,-0.605165,1.081298,1.436918,-1.002892,0.385549,-0.075234
1515627150.411,-0.67363,1.766552,1.230481,-1.006598,0.791245,0.491576
1515627150.421,-0.818049,1.95088,0.700699,-0.796801,1.5553,0.682009
1515627150.431,-0.823211,1.398958,0.166767,-0.370501,2.038964,0.710091
1515627150.441,-0.717746,0.498689,-0.019785,0.052307,1.892233,0.37923
1515627150.451,-0.573306,-0.278938,0.079322,0.086448,0.726897,0.072154
1515627150.461,-0.497607,-0.774006,0.194278,-0.024123,-0.919574,0.032176
1515627150.471,-0.404096,-0.909824,0.105209,-0.459145,-2.735659,-0.02613
1515627150.481,-0.243271,-0.444696,-0.136552,-0.475606,-2.840582,-0.204526
1515627150.491,-0.486815,0.177636,-0.26025,0.059286,-1.073871,-0.571151
1515627150.501,-1.073261,0.586909,-0.114708,0.668378,0.351679,-1.157422
1515627150.511,-1.21755,0.626347,-0.154601,1.02824,-0.46022,-1.542432
1515627150.522,-0.505431,0.177582,-0.70298,1.633447,-1.555127,-1.680531
1515627150.532,0.13139,-0.394445,-1.114349,2.58066,-2.565941,-1.463873
1515627150.542,0.356148,-0.685174,-1.034831,3.297303,-3.827884,-1.319002
1515627150.552,0.469377,-0.751563,-1.12715,3.454399,-4.694318,-1.274287
1515627150.562,0.505705,-0.586369,-1.346985,3.303308,-4.890943,-1.207558
1515627150.572,0.472613,-0.418504,-1.460898,3.12839,-4.6228,-0.972336
1515627150.582,0.38266,-0.150627,-1.407049,3.02789,-3.631595,-0.469646
1515627150.592,0.160172,0.232291,-1.188169,3.243209,-1.936741,-0.104511
1515627150.602,-0.037253,0.766049,-0.780351,3.523489,-0.33706,-0.120156
1515627150.612,0.026724,1.271048,-0.432875,3.705997,0.778061,-0.212115
1515627150.622,0.190481,1.371964,-0.314542,3.887217,1.257371,-0.002768
1515627150.632,0.274457,1.118821,-0.179598,4.067619,1.248269,0.457282
1515627150.642,0.287208,0.657329,0.041638,3.951964,0.687366,0.912945
1515627150.652,0.286561,0.16156,0.291461,3.459166,-0.209911,1.228742
1515627150.662,0.177784,-0.195995,0.33372,2.999877,-0.847864,1.460637
1515627150.672,0.021139,-0.359778,0.293009,2.934099,-1.366474,1.614612
1515627150.682,-0.081244,-0.418661,0.285479,3.271016,-2.141143,1.627728
1515627150.692,-0.130467,-0.421528,0.237167,3.762348,-3.061671,1.568724
1515627150.702,-0.192093,-0.382376,0.121016,3.921723,-3.658528,1.395018
1515627150.712,-0.272947,-0.342251,0.099356,3.731817,-4.193218,1.172598
1515627150.722,-0.259172,-0.242775,0.019369,3.19136,-4.29161,1.011347
1515627150.732,-0.258917,-0.189323,-0.045768,2.461408,-3.693917,0.760747
1515627150.742,-0.276916,-0.174091,0.030399,1.82026,-2.698516,0.41354
1515627150.752,-0.21374,-0.137865,0.143178,1.270158,-1.479026,-0.121358
1515627150.762,-0.093728,-0.098584,0.352245,0.930599,-0.634907,-0.479298
1515627150.772,0.005329,-0.07431,0.49327,0.892195,-0.474338,-0.564404
1515627150.782,0.05155,-0.12263,0.424395,1.015913,-0.857269,-0.512045
1515627150.792,0.148434,-0.126866,0.310413,1.125631,-1.579451,-0.440783
1515627150.802,0.269947,-0.080301,0.188103,1.224682,-2.184115,-0.39587
1515627150.812,0.344572,-0.025039,0.091812,1.33957,-2.448551,-0.346407
1515627150.822,0.341098,0.033654,0.09717,1.49785,-2.283211,-0.323704
1515627150.832,0.261927,0.070439,0.20123,1.657723,-1.816791,-0.36704
1515627150.842,0.129237,0.072469,0.319712,1.710917,-1.412308,-0.506648
1515627150.852,0.00886,0.044467,0.29001,1.600173,-0.917005,-0.688384
1515627150.862,-0.049066,-0.000807,0.203862,1.39783,-0.0701,-0.86789
1515627150.872,-0.072912,-0.026396,0.294102,1.171773,0.788598,-1.018887
1515627150.882,-0.017758,0.035942,0.476721,0.871279,0.950812,-1.089036
1515627150.892,0.130717,0.164788,0.530545,0.549651,0.141894,-1.046689
1515627150.902,0.328799,0.286687,0.432378,0.453624,-1.053893,-0.928408
1515627150.912,0.528832,0.431312,0.306634,0.554217,-1.635564,-0.74283
1515627150.922,0.695381,0.586993,0.285335,0.621761,-1.159209,-0.386838
1515627150.932,0.773076,0.702212,0.336996,0.558125,0.0378,0.077599
1515627150.942,0.697063,0.727282,0.414667,0.413078,0.958523,0.36653
1515627150.952,0.490241,0.688206,0.562976,0.020125,0.934684,0.278658
