time, accel x, accel y, accel z, gyro x, gyro y, gyro z
1515648600,0.13713,-0.009738,0.062077,0.566464,0.753604,0.243063
1515648600,0.139251,0.048558,0.068988,0.880141,0.80772,0.123133
1515648600,0.067525,-0.066779,0.081313,1.049294,0.890758,0.133527
1515648600,-0.003211,-0.052644,0.079187,0.845067,0.971179,0.454269
1515648600,-0.026966,-0.001241,0.092117,0.666097,1.148875,0.623771
1515648601,-0.064111,0.073345,0.066444,0.71457,1.391721,0.484309
1515648601,-0.07529,0.086042,0.059637,0.871997,1.735333,0.266485
1515648601,-0.136544,-0.010766,-0.052177,0.902095,1.780861,0.209075
1515648601,-0.096235,-0.047874,-0.01604,0.707014,1.693748,0.264621
1515648601,-0.056826,-0.156193,-0.009269,0.256788,1.018092,0.353274
1515648601,-0.097624,-0.229135,0.13223,-0.271749,0.402109,0.533146
1515648601,-0.129939,-0.189805,0.357702,-0.667496,0.793287,0.774984
1515648601,-0.171223,-0.158937,0.536355,-0.836989,1.923287,1.16784
1515648601,-0.258695,-0.02385,0.396532,-0.562016,2.621947,1.370261
1515648601,-0.178126,0.104683,0.424872,0.058469,2.638013,0.858688
1515648601,-0.220971,0.123741,0.500648,0.672702,2.748528,0.677362
1515648601,-0.133939,0.128743,0.706103,0.836618,3.524733,0.921807
1515648601,0.075052,0.127829,0.79626,0.751953,4.915119,1.700688
1515648601,-0.079885,0.272929,0.771009,0.474041,5.754665,2.66748
1515648601,-0.25525,0.450938,0.716204,0.597364,5.556836,2.179102
1515648601,-0.656433,0.119558,0.356203,0.550037,4.25112,0.637644
1515648601,-0.122978,0.446114,0.219556,0.499867,4.265178,-1.38186
1515648601,0.093764,0.56909,0.094516,0.749501,2.977961,-2.166357
1515648601,0.342823,0.373619,0.267895,0.734397,2.218009,-1.998758
1515648601,0.44967,0.399815,0.280501,0.684511,2.537949,-1.896874
1515648601,0.512927,0.472527,0.109219,0.451363,3.065778,-2.180676
1515648601,0.509607,0.460805,-0.004917,-0.195582,2.684787,-2.930686
1515648601,0.54581,0.407397,0.013708,-0.746454,2.123368,-3.319956
1515648601,0.646371,0.456521,0.119107,-0.765092,1.937864,-3.194222
1515648601,0.736437,0.570747,0.200889,-0.378268,1.976343,-2.885427
1515648601,0.755072,0.686199,0.273274,-0.098636,2.557476,-2.917349
1515648601,0.804553,0.691807,0.235567,-0.007998,3.016019,-3.391298
1515648601,0.976195,0.68873,0.101319,-0.155735,3.358547,-3.868518
1515648601,1.121419,0.671559,-0.028897,-0.601639,3.118036,-4.23718
1515648601,1.164543,0.548728,-0.113302,-1.205973,2.4532,-4.384792
1515648601,1.0081,0.316754,-0.18155,-1.767267,1.802584,-4.056951
1515648601,0.822901,0.085203,-0.268017,-2.056057,1.453245,-3.582975
1515648601,0.616728,-0.135517,-0.359744,-2.174155,1.131492,-3.172101
1515648601,0.497781,-0.261925,-0.391178,-2.421574,0.796064,-2.674493
1515648601,0.465863,-0.233019,-0.415061,-2.964345,0.529565,-2.116588
1515648601,0.450204,-0.170053,-0.424587,-3.546969,0.046156,-1.626975
1515648601,0.389927,-0.155408,-0.402058,-3.850125,-0.4797,-1.216925
1515648601,0.307692,-0.095071,-0.320821,-3.801321,-0.75818,-0.952282
1515648601,0.146511,-0.022232,-0.24913,-3.483312,-0.798524,-0.698133
1515648601,0.020798,0.042822,-0.188673,-3.0238,-0.603013,-0.465768
1515648601,-0.027969,0.063416,-0.199676,-2.544931,-0.137458,-0.499835
1515648601,-0.054867,0.046083,-0.269532,-2.223454,0.310309,-0.748851
1515648601,-0.100147,-0.032104,-0.362222,-2.156446,0.541268,-0.96174
1515648601,-0.084361,-0.093632,-0.445315,-2.26345,0.618372,-1.068871
1515648601,-0.046874,-0.151556,-0.529775,-2.402457,0.539425,-1.138797
1515648601,-0.034641,-0.169503,-0.587054,-2.486711,0.368512,-1.084789
1515648601,-0.016184,-0.201648,-0.629032,-2.500928,0.163824,-0.983528
1515648601,0.021374,-0.232616,-0.658049,-2.336468,0.063443,-0.865445
1515648601,0.080149,-0.209707,-0.676714,-2.021637,-0.016746,-0.792438
1515648601,0.075349,-0.220092,-0.689005,-1.603318,-0.121353,-0.750867
1515648602,0.073712,-0.261415,-0.682552,-1.159277,-0.12942,-0.755029
1515648602,0.087172,-0.292809,-0.682356,-0.730527,-0.131501,-0.879691
1515648602,0.14781,-0.319351,-0.676707,-0.277747,-0.244263,-1.089414
1515648602,0.198375,-0.329383,-0.653589,0.227311,-0.292275,-1.328743
1515648602,0.484154,-0.264522,-0.51773,0.822204,0.067212,-1.708483
1515648602,0.633844,-0.454427,-0.524614,1.473746,0.45161,-1.945169
1515648602,0.852903,-0.601389,-0.573844,1.902913,0.471161,-1.58926
1515648602,0.886867,-0.740112,-0.606684,2.065964,-0.21065,-0.568367
1515648602,0.71151,-0.826891,-0.561153,2.058609,-1.237535,0.891934
1515648602,0.63746,-0.753189,-0.398739,2.086283,-2.006946,2.140227
1515648602,0.74469,-0.54004,-0.241202,2.354951,-2.267896,2.86628
1515648602,0.87143,-0.267548,-0.075485,2.688872,-2.353282,3.324053
1515648602,0.929345,-0.046172,0.039854,2.992332,-2.230858,3.672884
1515648602,0.936825,0.115037,0.104909,3.229767,-1.956699,3.996802
1515648602,0.88588,0.262862,0.167076,3.428365,-1.658453,4.219287
1515648602,0.766654,0.383831,0.219414,3.486869,-1.414725,4.37183
1515648602,0.646031,0.512872,0.284252,3.272626,-1.267263,4.385608
1515648602,0.520678,0.623286,0.328043,2.781585,-1.220437,4.224361
1515648602,0.370336,0.664358,0.328051,2.15765,-1.275759,4.045444
1515648602,0.237218,0.67534,0.30748,1.606142,-1.320396,3.861567
1515648602,0.161415,0.681251,0.240438,1.320815,-1.433773,3.690767
1515648602,0.134826,0.700711,0.179037,1.272602,-1.650777,3.594725
1515648602,0.138079,0.77277,0.197258,1.353126,-1.863343,3.516387
1515648602,0.154418,0.93602,0.320993,1.519169,-1.755435,3.322163
1515648602,0.121208,1.064894,0.414221,1.703253,-1.278621,2.889164
1515648602,0.038799,1.140054,0.477763,2.041117,-0.64216,2.163828
1515648602,-0.01124,1.132765,0.491395,2.384854,0.040716,1.334063
1515648602,-0.023891,1.156849,0.474194,2.597633,0.674133,0.697608
1515648602,-0.052777,1.236811,0.419251,2.621745,1.056446,0.325657
1515648602,-0.067658,1.294367,0.329204,2.40467,1.22914,-0.09854
1515648602,0.050783,1.328133,0.21151,1.776259,1.681791,-0.884029
1515648602,0.175847,1.320449,0.020381,0.623232,2.099737,-2.088766
1515648602,0.346785,1.152705,-0.166619,-0.59851,2.289133,-3.339552
1515648602,0.499722,0.949146,-0.352981,-1.635311,1.964101,-4.072357
1515648602,0.48018,0.78715,-0.447178,-2.594229,1.052657,-4.173667
1515648602,0.360518,0.612008,-0.350579,-3.35713,0.243312,-3.939459
1515648602,0.276518,0.433092,-0.243561,-3.808678,0.177149,-3.542103
1515648602,0.309791,0.373281,-0.265083,-3.865594,0.647142,-2.984266
1515648602,0.439447,0.560181,-0.332441,-3.978066,0.941475,-2.548093
1515648602,0.494105,0.709443,-0.479015,-4.365349,0.690978,-2.369828
1515648602,0.387472,0.640453,-0.536653,-4.673601,0.13629,-2.3647
1515648602,0.343254,0.558637,-0.477136,-4.770942,-0.051506,-2.62402
1515648602,0.302461,0.467429,-0.438134,-4.826863,0.146673,-2.748004
1515648602,0.312047,0.41898,-0.458926,-4.978921,0.319998,-2.628445
1515648602,0.289603,0.390489,-0.507238,-5.233484,0.295936,-2.424051
1515648602,0.249655,0.381448,-0.536826,-5.642932,0.305389,-2.324875
1515648602,0.257225,0.400768,-0.600008,-6.228365,0.587077,-2.406796
1515648602,0.250547,0.38171,-0.763955,-6.791347,0.619283,-2.460776
1515648602,0.365529,0.438655,-0.867658,-7.094747,0.394966,-2.432356
1515648602,0.37682,0.483213,-0.902781,-7.241386,0.049175,-2.237914
1515648603,0.364918,0.537262,-0.912838,-7.374018,-0.31206,-1.884631
1515648603,0.259744,0.590239,-0.887545,-7.273054,-0.640933,-1.794456
1515648603,0.21374,0.548702,-0.840294,-6.789987,-0.397245,-2.149123
1515648603,0.198745,0.497816,-0.817695,-6.160875,0.210591,-2.598078
1515648603,0.313337,0.430125,-0.836941,-5.581606,0.769449,-3.072826
1515648603,0.527893,0.33802,-0.870362,-4.942548,1.395152,-3.587806
1515648603,0.876004,0.241324,-1.032498,-4.305627,2.075497,-4.296755
1515648603,0.991041,-0.325216,-1.2372,-3.557728,2.229313,-4.955874
1515648603,1.06039,-0.676456,-1.31356,-2.864791,2.462593,-4.956778
1515648603,0.926657,-1.228167,-1.609921,-3.09064,2.090952,-4.500599
1515648603,0.636929,-1.250261,-1.768407,-3.715901,-0.110907,-2.589948
1515648603,0.40884,-0.991047,-1.686181,-3.876964,-3.079706,-0.167251
1515648603,0.326341,-0.631144,-1.246332,-3.213074,-5.296789,0.49675
1515648603,0.319217,-0.407773,-0.765873,-2.465294,-5.856241,-0.016027
1515648603,0.344234,-0.336234,-0.273718,-1.538565,-4.702831,-1.02638
1515648603,0.385281,-0.535677,-0.159414,-0.380316,-2.466086,-1.75161
1515648603,0.559205,-0.577201,-0.460076,0.123256,-1.411366,-1.183793
1515648603,0.751158,-0.527295,-0.616449,0.26009,-1.998938,-0.249387
1515648603,0.85436,-0.414942,-0.476655,0.68966,-2.966256,0.393641
1515648603,0.862444,-0.351103,-0.278238,1.492434,-3.264723,0.827235
1515648603,0.835765,-0.232007,-0.115181,2.157457,-3.260598,1.275962
1515648603,0.746759,-0.133351,0.040944,2.445647,-3.091288,1.680108
1515648603,0.710614,-0.022708,0.084618,2.535705,-2.857942,1.902076
1515648603,0.668378,0.054897,0.1121,2.788189,-2.950114,1.894861
1515648603,0.623605,0.111038,0.183495,3.430425,-3.018579,1.874663
1515648603,0.669741,0.193251,0.465976,4.151981,-2.870133,1.910166
1515648603,0.589691,0.243228,0.755538,4.336483,-2.362653,2.139932
1515648603,0.459825,0.281442,0.957677,3.862159,-1.699358,2.482473
1515648603,0.322027,0.380611,0.959578,3.192626,-1.036628,2.701496
1515648603,0.164989,0.548056,0.904051,2.703177,-0.756486,2.778833
1515648603,0.024982,0.702626,1.030958,2.163752,-0.955233,2.556723
1515648603,0.01582,0.946411,1.204521,1.452534,-0.685323,2.131068
1515648603,0.080119,1.147555,1.227604,0.628463,0.196958,1.595852
1515648603,0.141069,1.52084,0.96286,-0.208382,1.166279,1.045619
1515648603,0.057764,1.446475,0.624485,-1.003179,1.627957,0.492647
1515648603,-0.02177,1.265597,0.354588,-1.502451,1.652785,-0.270676
1515648603,-0.075823,1.028791,0.166672,-1.629058,1.517695,-1.005412
1515648603,-0.005197,0.923017,0.126361,-1.440436,1.34047,-1.373069
1515648603,0.044203,0.938636,0.106355,-1.449746,1.341935,-1.23566
1515648603,0.035329,0.993801,0.045176,-2.024664,1.332351,-1.057379
1515648603,-0.026232,0.972543,-0.002469,-2.964112,1.310866,-1.182481
1515648603,-0.028489,0.944479,-0.100965,-3.836363,1.411972,-1.534267
1515648603,0.027971,0.90814,-0.227079,-4.472055,1.428291,-1.902946
1515648603,0.134373,0.904147,-0.353262,-4.844009,1.382414,-2.204205
1515648603,0.189058,0.938589,-0.428496,-4.987073,1.388794,-2.508608
1515648603,0.213537,0.828603,-0.53081,-4.829613,1.575283,-2.705043
1515648603,0.313312,0.792857,-0.681648,-4.686518,1.435587,-2.938686
1515648603,0.405219,0.714177,-0.730506,-4.749235,0.978978,-3.246711
1515648603,0.488287,0.642576,-0.780622,-4.970809,0.575932,-3.344597
1515648603,0.552471,0.610532,-0.80066,-5.248919,0.158039,-3.420367
1515648604,0.619905,0.501424,-0.808449,-5.234739,0.06284,-3.648284
1515648604,0.66428,0.333399,-0.839706,-4.922721,0.0647,-3.840648
1515648604,0.722357,0.169909,-0.890659,-4.520673,0.024981,-3.758703
1515648604,0.771004,0.017915,-0.929211,-4.133062,-0.035668,-3.569196
1515648604,0.787011,-0.185548,-1.001322,-3.936377,-0.068728,-3.326308
1515648604,0.72076,-0.430224,-1.085192,-3.977782,-0.189795,-2.955642
1515648604,0.646551,-0.696261,-1.194205,-4.133582,-0.063398,-2.54731
1515648604,0.755683,-0.921969,-1.421718,-3.985298,0.120798,-2.4433
1515648604,0.75246,-1.144955,-1.659711,-2.970262,-0.347505,-2.045863
1515648604,0.557493,-1.170983,-1.573674,-1.14946,-1.323794,-0.957917
1515648604,0.370635,-0.994513,-1.212783,0.754009,-1.680937,0.08858
1515648604,0.253257,-0.872176,-0.936677,1.830589,-1.428811,0.581864
1515648604,0.179781,-0.856111,-0.799518,1.85087,-1.454796,0.763126
1515648604,0.212219,-0.866764,-0.710187,1.07771,-1.777117,0.844668
1515648604,0.29264,-0.853814,-0.667712,0.029812,-2.338547,0.971825
1515648604,0.390203,-0.77648,-0.654115,-0.582449,-2.994596,1.275971
1515648604,0.481305,-0.652294,-0.627364,-0.542492,-3.331289,1.608802
1515648604,0.596931,-0.531907,-0.557197,0.014814,-3.514056,1.750201
1515648604,0.810661,-0.410059,-0.494196,0.959603,-3.567444,1.699544
1515648604,1.049246,-0.342154,-0.44991,2.240193,-3.758154,1.788088
1515648604,1.249858,-0.308973,-0.292883,3.424588,-4.137656,2.345102
1515648604,1.350416,-0.136018,-0.023919,3.701771,-4.045614,3.195696
1515648604,1.371327,0.227439,0.168409,3.097742,-3.743974,3.75194
1515648604,1.281368,0.488084,0.352289,2.143591,-3.616403,3.751369
1515648604,1.245906,0.55879,0.522965,1.481046,-3.23538,3.174596
1515648604,1.148027,0.455781,0.735634,1.643928,-2.347782,3.023658
1515648604,0.988181,0.534914,0.837053,2.071396,-1.593843,3.546484
1515648604,0.717053,0.7757,0.901939,1.961354,-2.00244,3.682527
1515648604,0.382683,1.050303,1.178673,1.377006,-2.490465,2.990424
1515648604,0.108178,1.134709,1.634899,0.766175,-1.45476,2.193006
1515648604,0.129793,1.312505,1.635564,0.693414,0.490605,2.100039
1515648604,0.1643,1.874424,1.326341,0.234448,1.57293,1.920328
1515648604,0.050745,1.937267,1.098563,-0.86648,2.148123,1.071674
1515648604,0.030028,1.902382,0.916991,-1.380746,3.103878,-0.210049
1515648604,0.109651,1.420787,0.214614,-0.389546,3.721485,-1.413748
1515648604,0.182848,1.317493,0.193501,0.916682,3.085326,-2.187957
1515648604,0.246047,1.400764,0.370615,0.667917,2.661281,-2.552349
1515648604,0.330154,1.388793,0.381661,-0.818283,2.882578,-2.997836
1515648604,0.456793,1.170209,0.015817,-2.679529,3.115809,-3.587999
1515648604,0.669056,0.973438,-0.411385,-4.385646,2.695478,-4.006566
1515648604,0.793552,0.832793,-0.679643,-5.584365,1.679386,-3.863943
1515648604,0.772986,0.726716,-0.758881,-6.013841,0.996658,-3.308464
1515648604,0.691967,0.599462,-0.814275,-5.713127,0.848158,-2.990413
1515648604,0.675453,0.429643,-0.837312,-4.928513,0.675969,-2.939514
1515648604,0.681596,0.311653,-0.825931,-4.147647,0.413824,-2.777784
1515648604,0.716633,0.194712,-0.791034,-3.759031,-0.036921,-2.694629
1515648604,0.750119,0.091095,-0.767583,-3.734061,-0.379506,-2.903179
1515648604,0.752578,-0.143308,-0.789354,-3.914023,-0.417943,-3.264223
1515648604,0.717153,-0.500882,-0.843471,-3.976588,-0.170806,-3.352035
1515648604,0.650642,-1.05556,-0.966968,-3.617923,0.336581,-2.857136
1515648605,0.570333,-1.933313,-1.343649,-2.782833,1.203588,-1.951923
1515648605,0.589417,-2.290702,-1.605393,-1.321324,0.815216,-1.256063
1515648605,0.581539,-1.88312,-1.44984,-0.297636,0.18874,-0.483423
1515648605,0.445808,-1.809639,-1.302631,-0.144034,-0.566397,0.526802
1515648605,0.358872,-1.551548,-1.137046,-0.282169,-1.167945,1.139114
1515648605,0.436906,-1.340162,-1.065753,-0.18318,-1.469809,1.382703
1515648605,0.452351,-1.156212,-1.021374,0.315941,-1.767974,1.664527
1515648605,0.425974,-0.962403,-0.870335,1.088351,-2.031714,2.002047
1515648605,0.4832,-0.742594,-0.684073,1.834689,-2.018717,2.195441
1515648605,0.623069,-0.550668,-0.611186,2.377858,-1.821321,2.321663
1515648605,0.830896,-0.391625,-0.606167,2.708189,-1.510051,2.593817
1515648605,1.094326,-0.20033,-0.716433,2.887214,-1.556605,2.947438
1515648605,1.236409,0.045222,-0.773989,2.993639,-1.957625,3.767583
1515648605,1.37982,0.443333,-0.666856,3.101446,-2.556245,4.567595
1515648605,1.434892,0.785436,-0.473268,3.485214,-2.732821,4.704927
1515648605,1.331968,0.962064,-0.34754,4.384687,-2.328424,4.67833
1515648605,1.275201,1.212285,-0.224619,5.334818,-1.917377,4.7287
1515648605,1.026332,1.376826,0.129816,5.925857,-0.997576,4.551118
1515648605,0.649748,1.44812,0.378107,6.503694,0.530729,4.710949
1515648605,0.31922,1.723704,0.367103,6.739286,1.286115,4.716022
1515648605,0.086718,1.732333,0.463261,5.929359,1.98355,4.160724
1515648605,-0.136022,2.071407,0.377038,3.714211,2.12647,4.027032
1515648605,-0.310876,2.326398,0.282618,0.305551,1.643894,3.246209
1515648605,-0.077074,2.381958,0.096212,-2.205963,1.475931,1.19104
1515648605,0.367515,2.411485,-0.01978,-2.803706,1.389316,-0.575414
1515648605,0.470554,2.187376,-0.244016,-3.059956,1.132444,-1.148776
1515648605,0.485166,1.987876,-0.323042,-3.192599,0.246165,-1.628504
1515648605,0.751999,2.068155,-0.031028,-2.782797,0.106814,-3.24924
1515648605,0.881563,1.708904,0.11215,-2.231854,0.656324,-4.35174
1515648605,0.896083,1.359918,0.191423,-1.619163,1.219852,-4.343626
1515648605,0.904398,1.233298,0.193309,-1.789714,1.612538,-4.379841
1515648605,1.06539,1.183997,-0.007036,-3.053386,1.787299,-5.186485
1515648605,1.28443,0.857378,-0.331494,-4.721552,1.530622,-5.938468
1515648605,1.334118,0.529703,-0.51904,-5.990741,1.526685,-6.124898
1515648605,1.313833,0.279469,-0.848914,-5.26076,2.970287,-5.929094
1515648605,1.352284,-0.157073,-1.237603,-1.923502,3.316339,-5.669625
1515648605,1.279409,-0.897521,-1.070307,1.546802,2.661604,-4.854889
1515648605,0.804874,-1.244993,-0.756745,2.552737,2.900215,-3.182369
1515648605,0.588961,-1.619402,-0.738125,1.998631,2.018332,-2.76807
1515648605,0.498094,-2.003549,-0.610889,0.411806,0.694803,-2.66453
1515648605,0.492914,-2.130131,-0.411558,-1.191646,-0.639425,-1.518956
1515648605,0.530713,-2.094446,-0.228812,-1.625082,-1.13326,-0.307204
1515648605,0.60345,-1.856671,-0.153616,-0.902063,-0.539541,0.877824
1515648605,0.733777,-1.471103,-0.329545,0.165034,-0.127632,1.88246
1515648605,0.837261,-1.098145,-0.417519,1.085253,-0.208492,2.592511
1515648605,0.819047,-0.844759,-0.369398,1.759372,-0.495464,3.362161
1515648605,0.856952,-0.594116,-0.250903,2.064699,-0.792698,4.015967
1515648605,0.964161,-0.308615,-0.095274,2.189846,-1.061891,4.51967
1515648605,1.116541,0.044683,0.073064,2.329462,-0.777285,4.81752
1515648605,1.20367,0.363326,0.064791,2.219411,-0.548414,5.028902
1515648606,1.146216,0.58825,0.06762,1.682565,-0.678849,5.272421
1515648606,1.02912,0.889842,0.075588,1.116929,-0.748267,5.32824
1515648606,0.722941,1.368072,0.136778,1.076762,-0.548397,5.056216
1515648606,0.451324,1.654565,0.178348,1.406073,0.333834,4.478821
1515648606,0.096932,1.860165,0.099598,1.113051,0.990687,4.030564
1515648606,-0.178817,2.206351,-0.030958,-0.339617,1.017991,3.342393
1515648606,-0.283204,2.523515,-0.14105,-1.965556,0.508801,1.956737
1515648606,-0.317697,2.631503,-0.137528,-2.611482,0.224887,0.641935
1515648606,-0.311708,2.597158,-0.192094,-2.528603,0.212667,-0.623536
1515648606,-0.174948,2.418596,-0.247918,-2.089275,0.350052,-2.056716
1515648606,0.079849,2.157247,-0.298491,-1.568211,0.492949,-3.447939
1515648606,0.316268,1.823168,-0.333156,-1.135627,0.519104,-4.429299
1515648606,0.54197,1.6193,-0.286261,-0.952748,0.382937,-4.916347
1515648606,0.69218,1.521955,-0.268591,-1.261587,0.285456,-5.445298
1515648606,1.068946,1.291383,-0.279454,-2.094966,0.186748,-5.856467
1515648606,1.295581,1.140919,-0.37519,-3.165896,0.17547,-6.078125
1515648606,1.603804,0.945529,-0.506826,-3.953412,0.169626,-6.70435
1515648606,1.881511,0.378631,-0.509676,-3.636055,0.111981,-7.260022
1515648606,2.12481,-0.461031,-0.346313,-1.845015,0.658292,-7.004126
1515648606,2.105219,-1.324394,-0.143688,1.197218,2.054597,-5.986907
1515648606,1.751329,-2.3022,0.107566,4.530299,3.063653,-4.930739
1515648606,1.396091,-2.809031,0.547487,6.4582,3.109377,-4.13047
1515648606,1.32715,-2.650181,0.871256,6.527736,3.333913,-3.300161
1515648606,1.117159,-2.178299,1.14425,5.177724,2.580673,-1.519597
1515648606,0.914479,-1.81704,1.255647,1.714355,1.73336,-0.312165
1515648606,0.828113,-1.592988,0.977497,-1.31431,1.464289,0.559363
1515648606,0.828778,-1.36853,0.573217,-3.080573,1.36546,1.472292
1515648606,0.796023,-1.210788,0.156212,-3.971334,1.159079,2.357686
1515648606,0.8083,-0.93502,-0.142477,-4.165323,0.64001,3.224334
1515648606,0.799736,-0.612717,-0.252692,-3.87691,-0.033089,3.921921
1515648606,0.784859,-0.362588,-0.305999,-3.244942,-0.349542,4.435648
1515648606,0.87786,-0.179783,-0.389827,-2.514957,-0.530062,4.914627
1515648606,0.986749,0.124073,-0.377302,-1.648041,-0.849833,5.306992
1515648606,1.054005,0.386723,-0.260387,-0.734162,-0.875579,5.628052
1515648606,0.984263,0.845543,-0.141177,-0.15112,-0.780801,5.874936
1515648606,0.465845,1.73687,0.160913,0.054179,-1.065993,6.330031
1515648606,-0.218892,2.904789,0.629766,0.138519,-0.751309,6.051125
1515648606,-0.687467,3.132226,0.657931,-0.688267,0.51569,2.770817
1515648606,-0.630293,2.601439,0.169985,-1.99776,0.950577,-1.22649
1515648606,-0.326852,2.08555,-0.165881,-2.850044,-0.057694,-3.190883
1515648606,-0.037061,1.752874,-0.139935,-2.925303,-0.876481,-3.848312
1515648606,0.099424,1.445695,-0.072084,-2.305915,-0.808833,-3.806882
1515648606,-0.063075,1.026499,-0.005239,-0.896938,-0.18651,-3.225803
1515648606,-0.196546,0.822414,0.044279,0.586712,0.440058,-2.669927
1515648606,-0.087698,0.844714,-0.030767,0.938968,0.935168,-2.724881
1515648606,0.075017,0.716522,-0.246926,0.29951,0.801047,-2.967769
1515648606,0.213681,0.563833,-0.394025,-0.621255,-0.055067,-3.047604
1515648606,0.402001,0.443714,-0.341722,-1.347508,-0.90288,-3.255408
1515648606,0.453158,0.261827,-0.304946,-1.972345,-0.998067,-3.270211
1515648606,0.500757,0.111924,-0.328542,-2.323866,-0.80827,-2.906573
1515648607,0.583419,0.101756,-0.390346,-2.422149,-0.620264,-2.512906
1515648607,0.456728,0.011703,-0.500816,-2.740087,-0.793206,-1.999731
1515648607,0.31217,-0.089088,-0.55143,-3.197243,-1.181425,-1.682164
1515648607,0.372652,-0.168171,-0.656535,-3.624896,-1.573743,-1.679844
1515648607,0.53726,-0.238125,-0.717262,-3.970154,-2.022454,-1.738889
1515648607,0.611205,-0.371581,-0.752167,-4.023056,-2.099615,-1.59846
1515648607,0.592525,-0.607296,-0.776484,-3.723568,-1.861643,-1.320036
1515648607,0.576888,-0.780618,-0.749217,-3.096537,-1.520164,-0.988872
1515648607,0.539882,-0.930366,-0.644983,-1.863616,-0.761443,-0.552591
1515648607,0.502559,-0.883337,-0.629562,-1.053927,-0.150979,-0.185492
1515648607,0.360675,-0.913665,-0.584498,-0.62814,-0.148878,0.020162
1515648607,0.306653,-0.989873,-0.463079,-0.136741,-0.509592,-0.011299
1515648607,0.257767,-1.038818,-0.286474,0.581552,-0.706116,0.095741
1515648607,0.225729,-1.010004,-0.1554,1.286587,-0.429951,0.576518
1515648607,0.274969,-0.86377,-0.206545,1.609601,-0.056083,1.184253
1515648607,0.297153,-0.647761,-0.259818,1.502987,-0.230661,1.79437
1515648607,0.256642,-0.427977,-0.246189,1.26289,-0.635008,2.327217
1515648607,0.216416,-0.218673,-0.211026,1.245337,-0.832699,2.637308
1515648607,0.204468,-0.034884,-0.158733,1.421315,-0.831062,2.771382
1515648607,0.223694,0.085415,-0.169073,1.668756,-0.697285,2.675587
1515648607,0.25441,0.179905,-0.222791,2.069472,-0.63339,2.600839
1515648607,0.229027,0.38318,-0.185694,2.517576,-0.862149,2.669262
1515648607,0.096825,0.551736,-0.05906,2.698712,-1.079143,2.499785
1515648607,-0.10142,0.675464,0.105574,2.542941,-1.011238,2.172917
1515648607,-0.23777,0.776569,0.257736,2.318759,-0.669962,1.658019
1515648607,-0.28849,0.769677,0.35361,2.258803,0.285412,0.806928
1515648607,-0.188819,0.714631,0.207496,2.285262,1.238643,-0.074647
1515648607,-0.078787,0.568545,-0.065791,2.104059,1.13131,-0.391964
1515648607,-0.071146,0.407471,-0.083532,1.683005,0.339256,-0.170972
1515648607,-0.087949,0.423434,-0.000575,1.206676,-0.002826,-0.045322
1515648607,-0.129402,0.472491,0.090423,0.939595,0.015931,-0.078631
1515648607,-0.175469,0.491771,0.084669,0.900777,0.22365,-0.215317
1515648607,-0.161498,0.528071,-0.016235,1.047248,0.413992,-0.538615
1515648607,-0.12348,0.455906,-0.08651,1.156795,0.259634,-1.046267
1515648607,-0.054685,0.416165,-0.013145,0.631061,-0.212937,-1.564393
1515648607,0.007727,0.331166,-0.013422,-0.660047,-0.479374,-2.152523
1515648607,0.225782,0.011091,-0.138372,-1.693509,-0.490214,-2.594564
1515648607,0.379552,-0.252604,-0.132353,-1.930297,-0.489171,-2.52329
1515648607,0.429911,-0.556655,-0.15176,-2.406942,-0.663809,-1.814849
1515648607,0.383382,-0.483856,-0.157504,-3.930775,-1.245781,-0.945233
1515648607,0.268992,-0.312731,-0.270701,-4.991951,-1.558451,-0.031867
1515648607,0.115518,-0.126964,-0.43801,-4.926682,-1.555823,0.468206
1515648607,-0.001034,0.009053,-0.427966,-3.949545,-1.502179,0.328149
1515648607,0.011712,-0.026812,-0.341207,-2.379029,-1.148808,-0.287518
1515648607,0.107137,-0.172814,-0.270102,-1.20227,-0.780525,-0.757061
1515648607,0.149329,-0.274854,-0.207491,-0.97494,-0.769404,-0.666416
1515648607,0.168403,-0.252936,-0.133684,-1.577312,-1.024858,-0.30062
1515648607,0.190201,-0.165743,-0.037275,-2.300193,-1.146074,-0.110242
1515648607,0.179715,-0.124414,-0.038236,-2.754197,-0.750866,0.078025
1515648607,0.1101,-0.144641,-0.140678,-3.145148,-0.289345,0.399772
1515648608,0.064304,-0.109769,-0.164227,-3.362275,-0.31503,0.759922
1515648608,-0.007497,-0.00908,-0.04226,-3.318643,-0.513984,0.984006
1515648608,-0.086506,0.070281,0.019816,-3.049955,-0.314852,1.070496
1515648608,-0.149419,0.138588,0.002056,-2.657015,0.089951,0.992346
1515648608,-0.194229,0.157874,-0.009386,-2.176773,0.226785,0.777305
1515648608,-0.188924,0.191176,0.115378,-1.792046,-0.038448,0.392562
1515648608,-0.189808,0.171895,0.233528,-1.840945,-0.111838,0.020468
1515648608,-0.16442,0.14456,0.215276,-2.249477,0.044138,-0.250168
1515648608,-0.098822,0.118116,0.105213,-2.75889,0.043822,-0.541484
1515648608,-0.028855,0.025705,0.064014,-3.152277,-0.255708,-0.77453
1515648608,-0.020341,-0.145262,0.061486,-3.369626,-0.557877,-0.88309
1515648608,-0.049023,-0.29352,0.058196,-3.476252,-0.633779,-0.658756
1515648608,-0.043607,-0.314048,-0.011237,-3.555498,-0.436126,-0.24368
1515648608,-0.01142,-0.276266,-0.09855,-3.587018,-0.338667,0.036357
1515648608,0.025115,-0.267811,-0.119891,-3.506236,-0.384664,0.25416
1515648608,0.020211,-0.254386,-0.146264,-3.391744,-0.298815,0.511486
1515648608,0.043144,-0.195803,-0.241915,-3.389395,-0.090819,0.807622
1515648608,0.057935,-0.095855,-0.341881,-3.339087,-0.055316,0.941056
1515648608,0.018938,-0.06542,-0.388721,-3.231183,-0.249657,0.911856
1515648608,0.017152,-0.062035,-0.2902,-2.874799,-0.515077,0.827461
1515648608,-0.001567,-0.04596,-0.169934,-2.263505,-0.40308,0.786774
1515648608,0.008483,-0.04921,-0.138747,-1.72111,-0.121471,0.662544
1515648608,-0.00562,-0.131169,-0.148991,-1.23422,-0.078177,0.418816
1515648608,-0.04914,-0.248511,-0.021824,-0.613593,-0.436848,0.318737
1515648608,-0.135079,-0.345254,0.195307,0.045541,-0.607119,0.341307
1515648608,-0.135891,-0.39991,0.36798,0.634541,-0.414505,0.274894
1515648608,-0.115664,-0.420054,0.425951,0.972139,-0.163694,0.218914
1515648608,0.081079,-0.289441,0.346471,0.762963,0.201513,0.238998
1515648608,0.194672,-0.253689,0.13815,0.253508,0.254851,0.130931
1515648608,0.274245,-0.335782,-0.008673,-0.166478,-0.074939,0.08531
1515648608,0.305639,-0.369797,-0.064222,-0.392666,-0.428963,0.041732
1515648608,0.287141,-0.412985,-0.05337,-0.329962,-0.590193,0.090072
1515648608,0.191507,-0.461651,0.05576,0.263944,-0.62184,0.321087
1515648608,0.039236,-0.436305,0.179138,1.155648,-0.216175,0.719606
1515648608,-0.016924,-0.350873,0.185521,1.69888,0.364954,0.953264
1515648608,-0.027321,-0.253219,0.132099,1.605006,0.584686,0.945226
1515648608,-0.03207,-0.279919,0.066597,0.955371,0.404162,0.814199
1515648608,-0.034276,-0.410755,0.049859,0.163859,0.108989,0.74858
1515648608,0.021109,-0.457335,-0.008777,-0.413249,0.015569,0.951394
1515648608,0.055534,-0.450538,-0.108513,-0.858712,-0.139082,1.232689
1515648608,0.05808,-0.374319,-0.157392,-1.127242,-0.362661,1.493584
1515648608,0.050809,-0.223326,-0.164688,-1.05405,-0.488212,1.748678
1515648608,0.024942,-0.06072,-0.150746,-0.703256,-0.452533,1.84312
1515648608,-0.013783,0.093787,-0.136349,-0.338751,-0.363198,1.764977
1515648608,-0.047746,0.199039,-0.109925,-0.024316,-0.29992,1.511856
1515648608,-0.078344,0.265805,-0.061059,0.247937,-0.196569,1.179643
1515648608,-0.084929,0.38751,-0.030279,0.441129,-0.081472,0.892854
1515648608,-0.072678,0.528145,-0.038293,0.560785,0.066485,0.610999
1515648608,-0.115537,0.752893,-0.045384,0.551643,0.07949,0.346689
1515648608,-0.182129,0.957932,-0.023568,0.422429,-0.152957,0.082969
1515648609,-0.209731,1.153399,0.003405,0.13058,-0.38309,-0.414934
1515648609,-0.168047,1.265745,-0.027564,-0.270494,-0.613053,-1.175506
1515648609,-0.02851,1.335109,-0.002101,-0.420436,-0.776876,-1.921003
1515648609,0.027619,1.33841,-0.005933,-0.707903,-0.650393,-2.502168
1515648609,0.027385,1.115031,-0.073658,-1.486762,-0.574017,-2.982418
1515648609,0.110559,0.983374,-0.17688,-2.062742,-0.481246,-3.378532
1515648609,0.119087,0.779302,-0.239067,-2.196501,-0.572374,-3.617843
1515648609,0.151388,0.642906,-0.204458,-2.220896,-0.677536,-3.615781
1515648609,0.215644,0.69199,-0.149109,-2.508439,-0.582253,-3.622594
1515648609,0.320231,0.719263,-0.212104,-3.129666,-0.257297,-3.783572
1515648609,0.379449,0.672638,-0.372282,-3.666572,-0.085214,-3.952569
1515648609,0.465082,0.570679,-0.512694,-3.750397,-0.212828,-3.980627
1515648609,0.570437,0.522305,-0.610832,-3.630049,-0.485536,-3.938334
1515648609,0.593859,0.382493,-0.658504,-3.578759,-0.752523,-3.737617
1515648609,0.596802,0.222668,-0.712672,-3.38635,-1.040348,-3.447748
1515648609,0.66849,0.111425,-0.709251,-2.952978,-1.559005,-3.359009
1515648609,0.673486,-0.078306,-0.484744,-2.445988,-1.770891,-3.349972
1515648609,0.699523,-0.213511,-0.447264,-1.920288,-1.464507,-3.352825
1515648609,0.763238,-0.43418,-0.417044,-1.459602,-1.032338,-3.181311
1515648609,0.781643,-0.664562,-0.335858,-1.255262,-0.759222,-2.841571
1515648609,0.743666,-0.884806,-0.328695,-1.301176,-0.559578,-2.482799
1515648609,0.73985,-1.116071,-0.438505,-1.647632,-0.405744,-2.069048
1515648609,0.894842,-1.199349,-0.51149,-2.406994,-0.682338,-1.617717
1515648609,0.965155,-1.29397,-0.647131,-3.602494,-1.115115,-1.396518
1515648609,0.869667,-1.611621,-0.838486,-4.162861,-1.71258,-1.053778
1515648609,0.944402,-1.570843,-0.917778,-3.044703,-1.615362,-0.171272
1515648609,1.186756,-1.360664,-0.892055,-0.905239,-0.871897,0.192829
1515648609,1.215182,-1.206001,-0.928562,0.97424,0.023202,0.561945
1515648609,1.131308,-0.973931,-0.955684,2.157027,0.561737,1.608653
1515648609,0.889648,-0.88103,-0.903014,3.037049,0.495554,2.269473
1515648609,0.673639,-0.865413,-0.689328,4.142816,0.405123,2.561689
1515648609,0.807449,-0.756262,-0.578431,5.068381,1.183464,2.5606
1515648609,1.090417,-0.631036,-0.670823,5.623284,2.287394,2.524467
1515648609,1.451836,-0.357841,-0.887675,6.043754,3.015614,2.972683
1515648609,1.541669,-0.12391,-0.955919,6.151564,3.070934,4.028102
1515648609,1.611357,0.265518,-1.003283,5.543446,2.551481,5.254977
1515648609,1.499949,0.458039,-0.936314,4.212334,1.548793,6.01389
1515648609,1.375012,0.617086,-0.771965,2.724197,0.372021,6.149814
1515648609,1.28008,0.696449,-0.68189,1.433906,-0.455766,6.074511
1515648609,1.273352,0.844852,-0.579508,0.56652,-0.984399,6.098139
1515648609,1.305516,1.151857,-0.506062,0.209856,-0.986888,6.093161
1515648609,1.044456,1.281856,-0.468662,0.553783,-0.487645,6.004058
1515648609,0.797372,1.394221,-0.418868,1.53419,0.117946,5.753987
1515648609,0.618544,1.759321,-0.287032,2.565269,0.756125,5.019333
1515648609,0.147051,2.198389,-0.24078,2.953511,1.287977,4.81003
1515648609,-0.538477,2.490468,-0.238973,2.263566,0.864751,4.509495
1515648609,-1.144172,2.700214,-0.046797,1.223994,-0.405354,3.127153
1515648609,-1.266543,2.929108,0.201226,0.240304,-1.294743,0.476882
1515648609,-0.978279,2.734536,0.401861,-0.157322,-1.413639,-2.200681
1515648609,-0.770567,2.370177,0.37363,-0.032718,-0.31815,-3.138294
1515648610,-0.444866,2.331178,0.054119,-0.327732,0.924071,-3.528254
1515648610,-0.165889,2.147966,-0.467121,-0.842411,1.632764,-4.323955
1515648610,0.022278,1.820539,-0.8598,-1.365273,0.928443,-4.56065
1515648610,0.157778,1.808552,-0.913455,-2.100645,-0.422163,-4.204558
1515648610,0.173773,1.761134,-0.734895,-2.878627,-1.493125,-4.080055
1515648610,0.324517,1.750761,-0.622102,-3.039248,-1.606997,-4.458009
1515648610,0.572556,1.786572,-0.60106,-2.983994,-1.424361,-4.841432
1515648610,0.831096,1.684607,-0.556336,-3.179392,-1.368608,-5.311277
1515648610,1.167568,1.536665,-0.591186,-3.330863,-1.038037,-5.878019
1515648610,1.474742,1.387117,-0.752851,-3.326667,-0.736024,-6.105113
1515648610,1.693704,1.142714,-0.943994,-3.485561,-1.120821,-5.809486
1515648610,1.909964,0.871654,-0.955003,-3.909824,-1.943102,-5.395632
1515648610,2.048991,0.452701,-0.835354,-4.159187,-1.796645,-4.643597
1515648610,2.043572,-0.146796,-0.816863,-3.030781,-0.489643,-4.088771
1515648610,2.185153,-0.872793,-0.831203,-1.220121,0.234791,-3.942612
1515648610,2.071397,-1.416265,-0.86363,-0.708651,0.09083,-3.243106
1515648610,1.849364,-1.892449,-0.630536,-1.149867,-0.854591,-2.450997
1515648610,1.612262,-2.288934,-0.430902,-1.969253,-1.194228,-2.10543
1515648610,1.471668,-2.742783,-0.630739,-1.866007,-0.477532,-1.853794
1515648610,1.419761,-2.986714,-1.052815,-0.865804,0.316354,-0.948783
1515648610,1.266524,-2.821054,-1.172899,0.112,0.160742,0.314617
1515648610,1.269154,-2.490122,-1.047273,1.053582,-0.356418,1.08892
1515648610,1.306331,-2.091682,-0.836437,1.736314,-0.649288,1.658298
1515648610,1.369326,-1.697363,-0.58861,2.044638,-0.361527,2.243629
1515648610,1.43396,-1.292453,-0.571275,2.17194,0.619279,3.080244
1515648610,1.547579,-0.797541,-0.667053,2.377998,1.305084,3.974944
1515648610,1.633469,-0.372565,-0.808676,2.371656,1.533373,4.667406
1515648610,1.700572,0.031558,-0.886582,2.167465,1.132406,5.251583
1515648610,1.680843,0.426332,-0.86249,1.987325,0.62973,5.558879
1515648610,1.634269,0.669203,-0.852691,1.856353,0.229411,5.629812
1515648610,1.577561,0.838468,-0.850149,1.728607,-0.08387,5.680479
1515648610,1.467948,0.903758,-0.909858,1.544071,-0.668771,5.840748
1515648610,1.395653,1.057231,-0.839247,1.152616,-1.636401,5.943686
1515648610,1.264626,1.245686,-0.639373,0.83766,-2.134716,5.623764
1515648610,1.11947,1.306843,-0.45726,0.984204,-1.936979,5.286611
1515648610,1.021309,1.500919,-0.371495,1.461293,-1.195108,4.958305
1515648610,0.841341,1.597826,-0.315648,2.300063,-0.368337,4.488983
1515648610,0.606005,1.617714,-0.322274,3.177621,0.218378,4.352425
1515648610,0.263417,1.855589,-0.199884,3.471626,0.198435,4.333663
1515648610,0.028072,2.279706,0.023097,3.61048,0.181811,3.704616
1515648610,-0.271532,2.601525,0.225918,3.979599,-0.022111,2.875425
1515648610,-0.705337,2.794616,0.540563,3.254919,-0.263555,2.287992
1515648610,-0.764912,2.98485,0.672271,1.317597,-0.182096,0.695898
1515648610,-0.836038,2.815187,0.548216,-0.28405,-0.146042,-0.565233
1515648610,-0.586239,2.923348,0.434695,-1.105904,0.00845,-1.544418
1515648610,-0.332309,2.774781,0.240168,-1.088404,0.491568,-3.006517
1515648610,-0.014719,2.407454,0.017207,-0.812565,0.764966,-4.362799
1515648610,0.58203,2.015194,-0.320832,-0.788256,0.704468,-5.062729
1515648610,0.815402,1.826843,-0.355951,-1.15595,0.116165,-5.268859
1515648610,0.960585,1.623124,-0.335436,-1.642081,-0.304415,-5.461821
1515648611,1.187783,1.561723,-0.410688,-1.953465,-0.26737,-5.756424
1515648611,1.354598,1.414042,-0.492184,-2.296708,-0.247388,-6.062903
1515648611,1.443825,1.328423,-0.496068,-2.704945,-0.333544,-5.972196
1515648611,1.529079,1.265866,-0.540602,-3.175202,-0.311914,-6.040631
1515648611,1.668345,1.005776,-0.589345,-3.406252,-0.21509,-6.614039
1515648611,1.786849,0.625807,-0.607009,-3.057053,-0.067218,-7.002356
1515648611,1.850951,0.273645,-0.577081,-2.366988,0.096369,-6.863667
1515648611,1.895333,0.096101,-0.51639,-2.076995,0.22445,-6.395561
1515648611,1.81286,-0.040604,-0.48708,-2.679503,0.214834,-5.863656
1515648611,1.954323,-0.293093,-0.516824,-3.795408,-0.390247,-5.751726
1515648611,2.394973,-0.856869,-0.65081,-4.673154,-1.205703,-6.098825
1515648611,2.51982,-1.477069,-0.816669,-4.768596,-1.076388,-5.447239
1515648611,2.197591,-2.018828,-1.191797,-4.083713,0.271523,-3.501968
1515648611,1.894616,-2.145732,-1.679049,-1.93572,1.776917,-1.234036
1515648611,1.68223,-1.819876,-1.717836,0.57308,1.178664,0.315354
1515648611,1.412449,-1.592342,-1.331117,1.677062,-0.189959,1.142042
1515648611,1.446287,-1.547983,-0.96548,1.910248,-1.017712,1.286403
1515648611,1.422271,-1.578268,-0.711606,1.99584,-0.795429,1.361312
1515648611,1.462273,-1.388438,-0.61954,2.231976,-0.261524,2.237062
1515648611,1.46087,-0.965027,-0.66012,2.412845,0.300975,3.459883
1515648611,1.441357,-0.495164,-0.719804,2.403923,0.612854,4.401635
1515648611,1.373632,-0.165092,-0.767567,2.248095,0.628367,5.019943
1515648611,1.335251,0.080569,-0.794669,2.084329,0.292714,5.413551
1515648611,1.381982,0.401861,-0.783545,2.020558,-0.155871,5.65747
1515648611,1.428865,0.718555,-0.746959,2.081861,-0.576991,5.810365
1515648611,1.499379,0.969439,-0.715119,2.17243,-0.810472,5.8397
1515648611,1.485844,1.120699,-0.697722,2.141575,-0.904484,5.666971
1515648611,1.164263,1.120706,-0.608636,1.934248,-1.102792,5.834392
1515648611,0.833216,1.083149,-0.54149,1.670495,-1.435418,6.209378
1515648611,0.691185,1.163151,-0.428282,1.627877,-1.822395,6.096405
1515648611,0.612136,1.35427,-0.29302,1.886803,-2.112132,5.373264
1515648611,0.533338,1.30779,-0.181584,2.373266,-2.186551,4.482791
1515648611,0.455939,1.312579,-0.031573,2.625198,-1.993492,3.966098
1515648611,0.321332,1.355302,0.128142,2.426916,-1.429398,3.72294
1515648611,0.170895,1.409645,0.218849,2.068227,-0.906494,3.607939
1515648611,0.105091,1.661153,0.281552,1.79576,-0.698258,3.366723
1515648611,-0.025697,1.879372,0.422286,1.462812,-0.855414,2.781198
1515648611,-0.237799,1.990552,0.637062,0.997869,-0.882694,1.982916
1515648611,-0.419399,2.000342,0.793899,0.815634,-0.358511,1.177238
1515648611,-0.56699,2.134801,0.893264,0.960986,0.174688,0.433946
1515648611,-0.661813,2.229629,0.961163,0.513205,0.859669,-0.141918
1515648611,-0.430615,2.208048,0.676903,-0.631966,1.764599,-1.872176
1515648611,-0.086062,1.967649,0.257801,-1.133788,2.204541,-3.747098
1515648611,0.207822,1.712487,0.004781,-0.847255,1.639386,-4.593567
1515648611,0.405555,1.657025,0.060169,-0.678157,0.763907,-4.405815
1515648611,0.469822,1.541346,0.175515,-0.889136,0.479293,-4.328945
1515648611,0.593779,1.546773,0.124985,-1.160794,0.748172,-4.536088
1515648611,0.800826,1.635601,-0.016394,-1.612529,0.692617,-4.849467
1515648611,0.947211,1.553715,-0.084198,-2.289803,0.211582,-5.306546
1515648611,1.018927,1.408667,0.006585,-2.76185,-0.021776,-5.759526
1515648612,1.057358,1.317904,0.16525,-2.645998,0.759116,-6.415717
1515648612,1.208042,1.246729,0.144095,-2.194647,2.139483,-7.379542
1515648612,1.514792,1.373612,-0.068735,-1.835291,3.246608,-8.407634
1515648612,1.895387,1.20884,-0.434459,-1.7486,3.333401,-9.241579
1515648612,2.140393,0.717903,-0.554646,-1.45972,2.059199,-8.889991
1515648612,2.139028,0.231795,-0.448959,-1.236598,0.712762,-7.459288
1515648612,2.028632,-0.128587,-0.391276,-1.695404,0.133378,-6.079261
1515648612,2.088013,-0.618927,-0.566098,-2.683256,-0.288483,-5.121789
1515648612,2.265101,-1.085786,-0.748999,-3.19346,-0.909274,-4.426096
1515648612,2.255565,-1.323356,-0.7726,-2.721845,-1.282768,-3.050036
1515648612,2.05737,-1.454579,-0.739135,-1.672238,-1.056304,-1.192948
1515648612,1.834673,-1.463761,-0.785137,-0.713195,-0.455793,0.052933
1515648612,1.687405,-1.421785,-0.875813,-0.12826,-0.120432,0.484048
1515648612,1.683449,-1.384045,-0.873979,0.350916,0.014328,0.639817
1515648612,1.768015,-1.358197,-0.889973,0.926379,0.618186,1.004688
1515648612,1.672729,-1.310522,-0.875692,1.650803,0.821098,2.199512
1515648612,1.667756,-0.97117,-0.80286,2.193298,0.805085,3.407388
1515648612,1.682678,-0.430251,-0.757612,2.500179,0.875985,4.281582
1515648612,1.576772,-0.050007,-0.767226,2.605828,1.044347,5.137677
1515648612,1.446529,0.172514,-0.768709,2.680255,0.946365,5.729486
1515648612,1.41088,0.463318,-0.748842,2.691672,0.940718,5.967167
1515648612,1.40381,0.730489,-0.783297,2.660255,0.971751,6.055435
1515648612,1.309276,0.880578,-0.871012,2.770364,0.908494,6.175358
1515648612,1.224529,1.046164,-0.983199,2.983005,0.829254,6.243593
1515648612,1.077021,1.205801,-1.092815,3.277307,0.663725,6.198263
1515648612,0.836023,1.232628,-1.140788,3.852145,0.317195,5.911478
1515648612,0.575535,1.114509,-1.045459,4.649634,-0.214991,5.266806
1515648612,0.533523,1.010903,-0.827984,5.008985,-0.252673,4.626088
1515648612,0.5725,1.011584,-0.690708,4.771658,0.016657,4.558702
1515648612,0.560538,1.095649,-0.573636,4.037667,0.234293,4.770164
1515648612,0.271374,1.323174,-0.555546,2.905894,0.181681,4.952064
1515648612,-0.045555,1.537692,-0.447277,1.743867,-0.365999,4.741937
1515648612,-0.429016,1.580991,-0.373452,0.792404,-0.427771,3.935905
1515648612,-0.667244,1.707685,-0.362033,0.515108,0.02106,2.825044
1515648612,-0.76596,1.846722,-0.389546,0.888634,0.485762,1.481938
1515648612,-0.8707,1.869382,-0.386853,1.791386,0.693573,0.362177
1515648612,-1.123957,1.756383,-0.397856,2.7365,0.514163,-0.277659
1515648612,-1.194436,2.015117,-0.486815,2.389406,0.002157,-0.191771
1515648612,-1.020786,2.231155,-0.583813,0.686393,-0.927707,-0.876464
1515648612,-0.720019,2.304823,-0.434313,-0.004787,-1.691792,-2.569522
1515648612,-0.660097,2.007626,-0.046037,0.792499,-1.65708,-3.649231
1515648612,-0.555848,1.795898,-0.070737,1.088982,-0.563124,-3.738864
1515648612,-0.150604,1.817797,-0.282551,0.211702,-0.075783,-4.20914
1515648612,0.264584,1.753689,-0.418466,-1.22051,-0.327207,-4.703147
1515648612,0.449534,1.496267,-0.661049,-2.500853,-0.31441,-4.618989
1515648612,0.598065,1.422358,-0.746361,-3.117236,-0.22742,-4.097854
1515648612,0.80314,1.479094,-0.685717,-3.466528,-0.461271,-4.048338
1515648612,1.003933,1.438153,-0.841941,-4.095201,-0.738253,-4.475443
1515648612,1.074559,1.125014,-0.985521,-4.500174,-1.112731,-4.903515
1515648612,1.169661,0.846044,-1.00167,-4.398962,-1.570214,-5.20326
1515648613,1.265173,0.660205,-0.868098,-3.737244,-1.863361,-5.424641
1515648613,1.353244,0.450667,-0.72452,-2.905675,-1.742083,-5.629394
1515648613,1.425099,0.225595,-0.681156,-2.29266,-1.457901,-5.628595
1515648613,1.449574,-0.05905,-0.659815,-1.919876,-1.563698,-5.260128
1515648613,1.465879,-0.215707,-0.567458,-1.825775,-1.897577,-4.714982
1515648613,1.423196,-0.332401,-0.478912,-2.108036,-1.740095,-4.169842
1515648613,1.238528,-0.538139,-0.574905,-2.277301,-0.916949,-3.393239
1515648613,1.181561,-0.712,-0.750505,-1.520502,-0.190955,-2.735555
1515648613,1.15239,-0.658567,-0.755253,-0.537791,-0.04604,-2.193667
1515648613,1.040456,-0.654159,-0.780396,-0.388777,0.073126,-1.464136
1515648613,0.964522,-0.732869,-0.807776,-0.386048,-0.407996,-1.113311
1515648613,1.001687,-0.784078,-0.661241,-0.349886,-1.320334,-1.131856
1515648613,1.088621,-0.833952,-0.542586,-0.676776,-1.907668,-1.027708
1515648613,1.079063,-1.001745,-0.497912,-0.882258,-2.406243,-0.75891
1515648613,1.08094,-1.122693,-0.450494,-0.95152,-2.673223,-0.517237
1515648613,1.054111,-1.281543,-0.469972,-0.8666,-2.635798,-0.107653
1515648613,1.010333,-1.236532,-0.580933,-0.471949,-2.440856,0.664623
1515648613,0.939698,-1.000399,-0.632855,0.088712,-2.389552,1.29396
1515648613,0.840094,-0.790864,-0.557325,0.758163,-2.261314,1.691501
1515648613,0.895797,-0.784578,-0.242756,1.692672,-1.43855,1.979204
1515648613,1.017528,-0.668678,-0.066043,2.421085,-0.168717,2.664185
1515648613,1.093539,-0.273978,-0.071772,2.343521,0.311073,3.663051
1515648613,0.925839,0.005427,-0.01815,1.699754,0.08579,4.18633
1515648613,0.800728,0.104475,-0.020437,0.924192,0.054412,3.893703
1515648613,0.857353,0.281313,-0.065528,0.51752,0.517805,3.430049
1515648613,0.861284,0.314544,-0.21586,0.880738,1.286117,3.457052
1515648613,0.911497,0.387406,-0.297084,2.040058,2.133956,3.530633
1515648613,1.017722,0.547924,-0.435118,3.016755,2.974463,3.700263
1515648613,1.059079,0.630119,-0.638478,3.456321,3.269586,3.865346
1515648613,0.952563,0.616581,-0.788464,3.352443,2.796914,4.236939
1515648613,0.812314,0.704218,-0.825167,2.523306,1.558773,4.585049
1515648613,0.844372,0.927569,-0.693477,1.625994,0.291855,4.571593
1515648613,0.833815,1.192638,-0.576284,1.062373,-0.203227,4.350579
1515648613,0.608918,1.187027,-0.545761,0.823666,-0.399737,4.41981
1515648613,0.409752,1.289455,-0.469249,1.075493,-0.451783,4.334789
1515648613,0.202874,1.393743,-0.301639,1.849427,-0.266802,4.142501
1515648613,0.011132,1.595014,-0.16581,2.05455,0.147033,3.950458
1515648613,-0.468319,1.662424,-0.050072,1.596901,0.241509,4.084513
1515648613,-0.997591,1.737471,-0.010307,1.055432,0.51939,4.134944
1515648613,-1.217703,2.054733,-0.092373,0.525446,0.662939,2.951577
1515648613,-1.193634,2.07794,-0.21731,0.430034,0.29246,1.276221
1515648613,-1.10746,2.027221,-0.282984,0.832864,-0.417632,0.227944
1515648613,-1.019947,1.938126,-0.157322,0.932042,-1.186818,-0.591669
1515648613,-0.816264,1.865834,0.037723,0.908813,-1.247599,-1.726573
1515648613,-0.55507,1.738674,0.131551,0.986869,-0.782351,-2.791979
1515648613,-0.338954,1.590286,0.097978,1.206898,-0.292121,-3.367586
1515648613,-0.12777,1.468338,0.043143,1.326034,-0.056341,-3.759237
1515648613,0.123466,1.364875,-0.036761,1.311436,0.064444,-4.204776
1515648613,0.343889,1.261169,-0.067601,1.216776,-0.12152,-4.561055
1515648613,0.436499,1.060493,-0.031195,1.007082,-0.216794,-4.741073
1515648614,0.486069,0.853915,-0.049057,0.666213,-0.312589,-4.699041
1515648614,0.562796,0.79802,0.010645,0.31097,-0.422482,-4.747654
1515648614,0.631195,0.756905,0.060118,-0.127988,-0.111802,-5.125087
1515648614,0.760772,0.489039,-0.148239,-0.643732,-0.140249,-5.235265
1515648614,0.996836,0.242851,-0.109941,-0.559668,-0.738276,-4.936191
1515648614,1.319925,0.185504,0.144496,-0.149199,-0.867095,-4.821119
1515648614,1.695476,-0.20737,0.318714,0.09852,-0.755812,-5.332476
1515648614,2.301163,-0.981013,0.647259,0.959645,-1.517598,-5.708196
1515648614,2.507985,-1.44104,1.180418,0.929137,-1.536217,-4.472286
1515648614,2.514393,-1.749916,1.274975,-0.375351,-0.274517,-2.998303
1515648614,2.266745,-1.888697,0.389097,-1.695777,1.120895,-1.554308
1515648614,2.038958,-1.771695,-0.22499,-2.221915,1.577166,0.244705
1515648614,1.855376,-1.591781,-0.477975,-1.940886,1.521979,1.933988
1515648614,1.19615,-0.876789,-0.699175,-0.941746,1.116405,3.419255
1515648614,0.978565,-0.623271,-0.679985,0.219357,0.894465,4.110329
1515648614,0.762103,-0.129186,-0.661703,1.196223,1.193458,3.974409
1515648614,0.657189,-0.073845,-0.738505,2.008196,1.615867,3.607455
1515648614,0.603968,-0.036237,-0.750513,2.612045,1.708187,3.383463
1515648614,0.576135,0.060161,-0.712613,2.751677,1.616955,3.373549
1515648614,0.518958,0.152429,-0.616525,2.597119,1.53197,3.417572
1515648614,0.451335,0.171382,-0.594046,2.269681,1.698595,3.485112
1515648614,0.42094,0.239778,-0.630868,1.900481,1.839827,3.598276
1515648614,0.500447,0.424318,-0.678678,1.558252,1.763292,3.688241
1515648614,0.421259,0.522326,-0.667722,1.254703,1.526321,3.745444
1515648614,0.327874,0.552117,-0.642953,1.021237,1.189746,3.854203
1515648614,0.330762,0.688247,-0.557844,0.76623,0.906853,3.810446
1515648614,0.286433,0.829159,-0.492867,0.5765,0.830842,3.673136
1515648614,0.100947,1.058432,-0.399724,0.349769,0.594432,3.889502
1515648614,-0.168481,1.405854,-0.257155,-0.057917,0.239416,3.930253
1515648614,-0.532121,1.678331,-0.218447,-0.550769,-0.078581,3.592296
1515648614,-0.874914,1.845863,-0.106543,-0.74964,-0.5758,2.895728
1515648614,-0.893807,1.967311,0.047679,-0.669809,-0.818994,1.460942
1515648614,-0.929667,1.945576,0.059484,-0.520818,-0.661865,0.334238
1515648614,-0.988154,1.85144,0.163808,-0.556029,-0.828061,-0.179454
1515648614,-0.799137,1.773443,0.135609,-0.43657,-0.325552,-1.229749
1515648614,-0.604775,1.499822,0.002061,-0.132774,0.101198,-2.10433
1515648614,-0.440502,1.240276,-0.084832,0.128098,0.106705,-2.477045
1515648614,-0.235393,1.201328,-0.100947,0.099525,-0.291478,-2.437559
1515648614,-0.114211,1.216546,-0.116511,-0.490428,-0.802616,-2.33584
1515648614,-0.012196,1.157291,-0.133518,-1.386242,-1.282107,-2.561718
1515648614,0.142452,1.111492,-0.173881,-2.199357,-1.540033,-2.950322
1515648614,0.295864,1.041683,-0.225167,-2.755479,-1.577626,-3.259974
1515648614,0.414432,0.95537,-0.307253,-2.991825,-1.436187,-3.475402
1515648614,0.53056,0.841381,-0.383285,-2.979212,-1.264677,-3.661895
1515648614,0.577583,0.71217,-0.391596,-2.957675,-1.208525,-3.714031
1515648614,0.603768,0.566585,-0.396651,-3.013114,-1.19793,-3.703661
1515648614,0.679743,0.421217,-0.384603,-3.003599,-1.316264,-3.855924
1515648614,0.718978,0.272383,-0.327479,-3.091876,-1.420435,-3.855253
1515648614,0.744071,0.156096,-0.301135,-3.395517,-1.371255,-3.646883
1515648614,0.805282,0.036972,-0.342724,-3.470668,-1.179932,-3.572763
1515648615,0.858561,-0.089008,-0.379096,-3.257791,-1.050685,-3.397011
1515648615,0.883078,-0.129967,-0.369611,-3.205158,-0.931374,-2.94181
1515648615,0.916927,-0.155644,-0.460143,-3.455534,-0.766948,-2.572324
1515648615,1.029579,-0.36411,-0.642825,-4.011917,-0.354826,-2.729822
1515648615,1.361629,-0.973224,-1.058738,-4.786742,0.690286,-3.524864
1515648615,1.898768,-1.771976,-1.660488,-4.47901,1.356601,-4.200291
1515648615,2.111383,-1.911841,-1.89963,-2.66522,0.896631,-2.352888
1515648615,1.717829,-1.948783,-1.987796,-1.089547,-0.505693,0.888609
1515648615,1.230643,-1.361607,-1.606956,0.148432,-2.484823,3.147317
1515648615,0.951427,-0.807368,-1.077914,0.820618,-3.939607,3.71722
1515648615,0.873658,-0.566834,-0.618166,1.180511,-4.202562,3.392022
1515648615,0.970334,-0.417927,-0.366569,1.739861,-3.486231,3.020451
1515648615,1.187132,-0.175019,-0.275536,2.559165,-2.306291,3.09749
1515648615,1.352362,0.053928,-0.260591,3.305839,-1.28442,3.61219
1515648615,1.435115,0.217977,-0.218359,3.66922,-0.897724,4.233973
1515648615,1.513432,0.428097,-0.080576,3.734724,-1.062938,4.722408
1515648615,1.390194,0.617856,0.133035,3.410429,-1.346311,5.248382
1515648615,1.168389,0.77461,0.386567,2.654861,-1.714504,5.611338
1515648615,0.910835,0.909007,0.587862,2.1099,-1.894032,5.423295
1515648615,0.591501,1.03837,0.769507,1.809875,-1.940656,5.20444
1515648615,0.235307,1.195919,1.068899,1.561602,-1.938733,4.865413
1515648615,0.000181,1.228411,1.303606,1.05425,-1.25919,3.910989
1515648615,-0.067088,1.058693,1.221292,0.337292,-0.128793,2.850864
1515648615,-0.049713,0.97579,0.980285,-0.470094,0.624191,2.399982
1515648615,0.014168,1.029461,0.695026,-1.281455,0.795871,2.18699
1515648615,0.033294,1.109189,0.520414,-1.880625,0.524952,1.998724
1515648615,-0.131237,1.081319,0.499727,-2.03976,0.097764,1.972567
1515648615,-0.315571,1.159956,0.588898,-1.790896,-0.001124,1.85451
1515648615,-0.442735,1.316052,0.698564,-1.518292,0.223058,1.440192
1515648615,-0.448813,1.522205,0.734966,-1.632315,0.779682,0.803205
1515648615,-0.409336,1.670137,0.59056,-2.341674,1.300756,0.195221
1515648615,-0.45498,1.624468,0.356751,-3.247441,1.58624,-0.285758
1515648615,-0.374108,1.604638,0.125922,-3.786241,1.828708,-1.064304
1515648615,-0.200297,1.589704,-0.13262,-3.816608,1.989661,-1.92231
1515648615,-0.077901,1.456481,-0.366129,-3.45471,1.701809,-2.406247
1515648615,-0.026256,1.30938,-0.445223,-3.073893,1.044183,-2.597952
1515648615,0.074552,1.238072,-0.393901,-2.79031,0.497543,-2.935113
1515648615,0.203411,1.124612,-0.331823,-2.503921,0.232922,-3.438622
1515648615,0.359012,0.977789,-0.253331,-2.29203,0.241567,-3.81158
1515648615,0.482698,0.839622,-0.245138,-2.284798,0.553775,-3.827683
1515648615,0.5371,0.6298,-0.346921,-2.333792,0.731558,-3.671384
1515648615,0.58222,0.547715,-0.432563,-2.551963,0.677713,-3.494494
1515648615,0.562822,0.485651,-0.546709,-3.171863,0.387972,-3.222539
1515648615,0.508411,0.358514,-0.610485,-3.940286,-0.223833,-2.988456
1515648615,0.500138,0.285085,-0.636256,-4.362235,-0.752724,-2.843257
1515648615,0.489618,0.195026,-0.598177,-4.551842,-1.00126,-2.785474
1515648615,0.54577,0.135866,-0.626633,-4.61716,-0.92152,-2.73576
1515648615,0.561532,0.009207,-0.738836,-4.609445,-0.640855,-2.64529
1515648615,0.583599,-0.119726,-0.89719,-4.67978,-0.460938,-2.480566
1515648615,0.615002,-0.169451,-1.018091,-4.931301,-0.502961,-2.246309
1515648616,0.578542,-0.342338,-1.267226,-4.974988,-0.737032,-2.015191
1515648616,0.563725,-0.503426,-1.325048,-4.394513,-0.969531,-1.820371
1515648616,0.602186,-0.527961,-1.34242,-3.589875,-0.798729,-1.794055
1515648616,0.929935,-0.787022,-1.511292,-2.546461,-0.053046,-2.100348
1515648616,0.96084,-1.202184,-1.690216,-1.015771,0.201386,-1.69749
1515648616,0.882091,-1.298968,-1.54849,0.266977,-0.738607,-0.370375
1515648616,0.81145,-1.199595,-1.214323,0.536357,-1.971158,0.772802
1515648616,0.889415,-1.06338,-0.827723,0.408108,-2.932208,1.209519
1515648616,1.080262,-1.025623,-0.52587,0.618266,-3.197032,1.371601
1515648616,1.270185,-0.883439,-0.300664,1.302406,-2.931172,1.968409
1515648616,1.356713,-0.751594,-0.164881,2.191501,-2.381396,2.610861
1515648616,1.469403,-0.674838,-0.067653,2.943256,-1.973506,3.089659
1515648616,1.615212,-0.479114,0.064501,3.234673,-1.7612,3.665348
1515648616,1.694632,-0.208503,0.205573,3.072794,-1.770788,4.414703
1515648616,1.618895,0.076554,0.350475,2.540713,-1.966686,5.137784
1515648616,1.444185,0.292002,0.46766,1.939211,-2.155162,5.52593
1515648616,1.234258,0.474601,0.521856,1.343296,-2.27958,5.671118
1515648616,0.994322,0.592364,0.589112,0.824578,-2.429154,5.543938
1515648616,0.761024,0.710883,0.648309,0.479049,-2.468542,5.274766
1515648616,0.535585,0.829974,0.714393,0.266017,-2.321211,4.892157
1515648616,0.350334,0.991865,0.764505,0.03449,-2.092516,4.378347
1515648616,0.176512,1.057249,0.798892,0.031436,-1.748207,3.737759
1515648616,0.06231,1.125896,0.809218,0.179804,-1.234021,3.028586
1515648616,0.041201,1.274643,0.830065,0.114416,-0.856064,2.297092
1515648616,0.093638,1.368149,0.793634,-0.092073,-0.436054,1.468972
1515648616,0.03307,1.314127,0.795164,-0.064163,-0.119363,0.817892
1515648616,-0.081747,1.232677,0.822916,0.007289,0.380629,0.711453
1515648616,-0.199954,1.290502,0.733672,0.005215,0.975597,0.782535
1515648616,-0.361827,1.339142,0.615311,-0.343281,1.193535,0.614455
1515648616,-0.413727,1.400558,0.533069,-1.118229,0.930418,0.254807
1515648616,-0.314898,1.463887,0.45594,-1.814303,0.748528,-0.317587
1515648616,-0.232305,1.459975,0.4228,-2.256425,0.595812,-0.804559
1515648616,-0.155775,1.467692,0.406485,-2.553572,0.64646,-1.170494
1515648616,-0.079825,1.455,0.336463,-2.920207,0.999715,-1.54119
1515648616,0.074541,1.381889,0.225347,-3.207247,1.365372,-2.05321
1515648616,0.23231,1.311799,0.173694,-3.215602,1.552053,-2.484898
1515648616,0.390974,1.273631,0.129993,-3.315768,1.787097,-2.697561
1515648616,0.494807,1.254623,0.011615,-3.749927,1.98503,-2.778686
1515648616,0.544524,1.181005,-0.159226,-4.382659,1.925608,-2.907556
1515648616,0.605765,1.090534,-0.265636,-4.903463,1.634813,-3.018707
1515648616,0.721726,1.081413,-0.371892,-5.226351,1.455741,-3.126791
1515648616,0.834434,1.138397,-0.52493,-5.181154,1.517107,-3.220362
1515648616,0.980555,1.088723,-0.715255,-4.404879,1.63668,-3.622514
1515648616,1.111354,0.969391,-0.833384,-3.252568,1.789939,-4.246574
1515648616,1.223797,0.743436,-0.890749,-2.466277,1.897617,-4.722196
1515648616,1.382975,0.519525,-1.01852,-2.033533,2.054357,-5.013137
1515648616,1.504571,0.138212,-1.230697,-1.88323,1.803895,-4.999477
1515648616,1.456643,-0.452183,-1.408828,-1.996383,0.977069,-4.433817
1515648616,1.313616,-0.871325,-1.360109,-2.154528,0.125971,-3.446414
1515648616,1.134537,-1.200625,-1.389887,-1.532972,0.103474,-2.654775
1515648617,1.180836,-1.443035,-1.322628,-0.211393,-0.318318,-2.431642
1515648617,1.412511,-1.738483,-1.14549,0.603032,-0.624282,-2.727904
1515648617,1.352004,-2.005779,-0.964872,1.381398,-0.280554,-2.050742
1515648617,1.226849,-1.983253,-0.880816,2.06683,0.293688,-0.62081
1515648617,1.055703,-1.854168,-0.811606,2.280529,0.070744,0.400111
1515648617,0.899198,-1.714776,-0.633607,2.115728,-0.419858,1.185915
1515648617,0.863625,-1.520115,-0.515882,1.784023,-0.612476,1.873772
1515648617,0.835512,-1.249122,-0.44758,1.474563,-0.419132,2.699001
1515648617,0.854929,-0.889119,-0.522228,1.216697,-0.098603,3.417874
1515648617,0.86906,-0.52248,-0.652488,1.050543,0.070648,3.952936
1515648617,0.919433,-0.20482,-0.776081,1.045486,-0.005872,4.290734
1515648617,0.994397,0.069059,-0.857574,1.329278,-0.362555,4.255037
1515648617,1.004161,0.239331,-0.830076,1.887035,-0.775401,4.172783
1515648617,0.970803,0.323327,-0.740566,2.540167,-0.996835,4.13674
1515648617,0.989172,0.419892,-0.594866,3.109722,-1.097628,3.98513
1515648617,0.979454,0.560085,-0.444893,3.343691,-1.026686,3.836022
1515648617,0.935572,0.634801,-0.356646,3.262052,-0.756771,3.913262
1515648617,0.760386,0.642978,-0.300981,2.992882,-0.572949,4.029038
1515648617,0.663311,0.6962,-0.256877,2.672761,-0.616979,3.972051
1515648617,0.515787,0.758859,-0.128533,2.261053,-0.644113,3.91459
1515648617,0.479616,0.867914,-0.07664,1.77712,-0.44636,3.787407
1515648617,0.468645,0.95641,-0.08151,1.575249,-0.065194,3.460149
1515648617,0.375402,1.119554,-0.000413,1.805248,0.305994,3.207504
1515648617,0.222954,1.393293,0.117594,2.170457,0.658787,3.147362
1515648617,0.122971,1.57323,0.168624,2.290585,0.877615,2.770636
1515648617,-0.261744,1.798503,0.316677,2.073108,1.043038,2.047019
1515648617,-0.497527,1.806227,0.302989,1.504397,0.997855,1.335595
1515648617,-0.592933,1.944885,0.238237,0.568163,0.766139,0.873902
1515648617,-0.548466,2.021944,0.219877,-0.452421,0.237688,-0.05159
1515648617,-0.576983,1.858491,0.260036,-0.799848,-0.087465,-1.051596
1515648617,-0.555639,1.668889,0.356273,-0.509395,-0.12219,-1.747001
1515648617,-0.382455,1.609894,0.331388,-0.141874,0.233073,-2.396403
1515648617,-0.177308,1.568523,0.23984,-0.265685,0.459658,-2.940576
1515648617,-0.043826,1.392856,0.128747,-0.854337,0.391009,-3.327085
1515648617,0.122478,1.297476,0.03863,-1.499523,0.281509,-3.503948
1515648617,0.291752,1.243946,-0.03823,-2.08852,0.322928,-3.664618
1515648617,0.452927,1.230004,-0.1735,-2.633991,0.41966,-3.812308
1515648617,0.603145,1.177731,-0.314324,-3.149119,0.324012,-4.018356
1515648617,0.717729,1.069465,-0.427128,-3.50197,0.093478,-4.27681
1515648617,0.788805,0.924204,-0.458572,-3.579971,-0.259992,-4.538089
1515648617,0.896485,0.767882,-0.426621,-3.529244,-0.486964,-4.803055
1515648617,1.033171,0.617099,-0.412219,-3.475313,-0.419331,-4.934943
1515648617,1.114863,0.452881,-0.49309,-3.3541,-0.230679,-4.753285
1515648617,1.054397,0.215933,-0.555786,-3.152861,-0.210258,-4.385733
1515648617,1.028805,0.017404,-0.603223,-3.159292,-0.246836,-4.186484
1515648617,1.093084,-0.198154,-0.63589,-3.278722,-0.275524,-4.15084
1515648617,1.205575,-0.380629,-0.68538,-3.226365,-0.157188,-4.018511
1515648617,1.184313,-0.656944,-0.775417,-3.028315,0.049543,-3.499763
1515648617,1.182035,-0.849856,-0.905388,-2.906015,0.006331,-2.724457
1515648617,1.227239,-0.98465,-1.066596,-3.013845,-0.29399,-2.251746
1515648618,1.234608,-1.335974,-1.140621,-2.91063,-0.570347,-2.006008
1515648618,1.336139,-1.563657,-1.236733,-2.077478,-0.037362,-1.631286
1515648618,1.347077,-1.634423,-1.404317,-0.586718,0.73007,-0.854871
1515648618,1.337983,-1.493434,-1.418814,0.909493,0.793704,0.392893
1515648618,1.242591,-1.27607,-1.377285,1.753043,0.513767,1.3243
1515648618,1.020156,-1.0939,-1.166756,2.243152,-0.181108,2.131593
1515648618,0.861843,-0.901757,-0.882135,2.661013,-0.716401,2.698697
1515648618,0.820055,-0.648101,-0.65742,3.186596,-0.610023,2.936762
1515648618,0.84332,-0.445584,-0.552986,3.751547,-0.000434,3.091661
1515648618,0.917885,-0.273554,-0.537693,4.190202,0.715524,3.341777
1515648618,1.033665,-0.061611,-0.609689,4.321461,1.146529,3.586237
1515648618,1.077524,0.127584,-0.605712,4.223844,1.111273,3.9033
1515648618,1.112946,0.317518,-0.55774,3.923921,0.914472,4.249271
1515648618,1.067204,0.448273,-0.50024,3.473186,0.679105,4.534833
1515648618,1.00237,0.52274,-0.442088,2.890685,0.29486,4.800633
1515648618,0.917267,0.668722,-0.383484,2.121087,-0.165094,5.027173
1515648618,0.798209,0.837072,-0.290739,1.370383,-0.621207,5.114208
1515648618,0.639839,0.924723,-0.191703,1.004365,-0.835617,4.921755
1515648618,0.602215,1.03086,-0.097176,0.949865,-0.768739,4.57408
1515648618,0.49158,1.120386,-0.019974,1.001149,-0.58732,4.140556
1515648618,0.268138,1.151546,0.137463,1.183172,-0.371113,3.92719
1515648618,0.152677,1.47864,0.247847,1.373844,0.025479,3.658356
1515648618,0.072389,1.775083,0.352883,1.683378,0.480168,2.891405
1515648618,-0.257018,1.891853,0.380842,1.866626,0.692545,2.464928
1515648618,-0.623652,2.018227,0.532808,1.371117,0.21933,2.430714
1515648618,-0.685776,2.288193,0.626741,0.505413,0.218402,1.698604
1515648618,-0.618879,2.379912,0.585196,0.132011,0.624267,0.458352
1515648618,-0.616629,2.320475,0.435485,-0.394267,1.035662,-0.305297
1515648618,-0.620907,2.214068,0.248364,-1.424813,1.027598,-0.884782
1515648618,-0.423014,2.098525,0.063547,-1.95567,0.984219,-2.069127
1515648618,-0.146616,1.925356,-0.09867,-1.78689,1.079473,-3.293734
1515648618,0.089629,1.741871,-0.27746,-1.635799,1.0127,-4.004739
1515648618,0.289212,1.575843,-0.392567,-1.709514,0.683081,-4.459939
1515648618,0.450768,1.390466,-0.463365,-1.754923,0.419532,-4.850032
1515648618,0.700674,1.222806,-0.539292,-1.596242,0.218992,-5.191186
1515648618,0.917649,1.075758,-0.581172,-1.330137,0.008571,-5.324003
1515648618,1.068669,0.909873,-0.588457,-1.25731,-0.216625,-5.358696
1515648618,1.167707,0.715584,-0.630177,-1.496959,-0.412136,-5.310779
1515648618,1.275027,0.554344,-0.67477,-1.967324,-0.639341,-5.130807
1515648618,1.29713,0.367086,-0.750111,-2.599773,-0.840554,-4.728962
1515648618,1.316931,0.192298,-0.820513,-3.3004,-1.196282,-4.478681
1515648618,1.367812,0.054081,-0.889716,-3.988839,-1.492809,-4.322146
1515648618,1.323791,-0.236024,-0.959728,-4.455757,-2.11503,-4.117456
1515648618,1.232726,-0.654678,-0.866681,-4.407551,-2.60818,-3.896396
1515648618,1.072484,-1.078684,-0.821149,-3.416938,-2.341416,-3.453624
1515648618,1.04439,-1.21894,-0.615893,-1.238692,-1.714306,-2.591655
1515648618,1.03495,-1.138763,-0.482637,0.735506,-0.632267,-2.247734
1515648618,0.949784,-1.243349,-0.473555,1.718834,-0.037084,-2.076879
1515648618,0.818185,-1.538305,-0.410229,1.730878,-0.242069,-1.72828
1515648618,1.02312,-1.618081,-0.312983,1.045437,-0.172214,-1.230928
1515648619,1.011492,-1.627488,-0.662405,0.052189,0.178231,-0.211
1515648619,1.027684,-1.542959,-0.894062,-0.730113,-0.179207,0.911566
1515648619,0.957767,-1.301883,-1.05506,-1.092897,-0.858983,1.719919
1515648619,0.795708,-0.935184,-0.992892,-0.774221,-1.663356,2.547725
1515648619,0.654572,-0.773175,-0.89154,0.176594,-2.111376,3.000242
1515648619,0.583664,-0.557657,-0.526819,1.400061,-1.952039,2.962591
1515648619,0.690467,-0.326304,-0.29079,2.024611,-1.468749,2.773673
1515648619,0.814909,0.126452,-0.11798,1.841686,-0.920238,2.640357
1515648619,0.571598,0.363201,0.129948,1.578092,-0.317805,2.453329
1515648619,0.217484,0.6612,0.799622,1.357099,-0.210044,1.981197
1515648619,0.209956,0.644595,1.04894,0.769326,1.163388,0.818241
1515648619,0.353152,0.197569,0.487431,0.544438,3.08876,-0.221703
1515648619,0.364708,0.108244,0.25506,0.572392,2.961323,0.124816
1515648619,0.493402,0.097491,0.366109,0.871019,1.937097,0.959017
1515648619,0.555177,0.066915,0.337337,1.897982,2.557865,1.499832
1515648619,0.629157,0.038732,0.24619,2.1076,2.74663,2.046344
1515648619,0.678377,0.198715,0.132517,1.393906,2.327449,3.098956
1515648619,0.701129,0.398349,0.112483,0.326148,1.426182,3.592746
1515648619,0.636042,0.564371,0.119535,-0.282771,0.557202,3.723329
1515648619,0.540604,0.771799,0.226132,-0.593824,-0.235469,3.701927
1515648619,0.345878,0.884409,0.272603,-1.038304,-0.692167,3.493205
1515648619,0.234984,1.029264,0.326017,-1.496622,-1.101107,3.275871
1515648619,0.056483,1.206648,0.40831,-1.754326,-1.415046,3.151134
1515648619,-0.347887,1.415684,0.333558,-2.128257,-1.386097,3.365554
1515648619,-0.522021,1.611169,0.21132,-2.409798,-1.110198,3.024096
1515648619,-0.634963,1.683153,0.048323,-1.780164,-0.884827,2.181078
1515648619,-0.923784,1.614115,0.222771,-0.836698,-1.503414,1.718322
1515648619,-1.228735,1.59808,0.615893,-0.54837,-1.73134,1.056034
1515648619,-1.106198,1.818732,0.834557,-0.823167,-1.054423,0.211463
1515648619,-0.919019,1.806629,0.666691,-1.057088,0.032619,-0.591549
1515648619,-0.710595,1.741838,0.451214,-1.026531,0.463689,-1.352422
1515648619,-0.539829,1.630699,0.358581,-0.924494,0.686646,-2.471929
1515648619,-0.285716,1.510567,0.164852,-1.234685,0.966096,-3.387877
1515648619,-0.071372,1.324418,-0.035147,-1.510483,0.822987,-3.914507
1515648619,0.115404,1.132908,-0.165421,-1.749562,0.38085,-4.293762
1515648619,0.281994,0.935565,-0.245238,-2.174158,-0.160055,-4.612087
1515648619,0.503773,0.708655,-0.257009,-2.581602,-0.603851,-4.782263
1515648619,0.788723,0.594323,-0.305442,-2.745882,-0.607042,-4.728744
1515648619,0.940672,0.469197,-0.458379,-2.695163,-0.370011,-4.331145
1515648619,1.081529,0.334808,-0.611385,-2.376467,-0.523185,-3.806286
1515648619,1.219301,0.169091,-0.640208,-1.773743,-0.634539,-3.24273
1515648619,1.306002,-0.088667,-0.692386,-0.947697,-0.370255,-2.510947
1515648619,1.335333,-0.302331,-0.74032,-0.224937,-0.204797,-1.761522
1515648619,1.286163,-0.423625,-0.740297,-0.04685,-0.353323,-1.412118
1515648619,1.085119,-0.998249,-0.662549,-0.666523,-0.788155,-1.710164
1515648619,1.121241,-1.573695,-0.675482,-1.995396,-0.699258,-2.087669
1515648619,1.150342,-1.918309,-0.818958,-2.731553,-0.826602,-1.809986
1515648619,1.265579,-1.87075,-0.85346,-1.984902,-1.121491,-0.874793
1515648619,1.064417,-1.858052,-0.685158,-0.422421,-1.266542,0.179471
1515648619,0.877726,-1.697147,-0.455192,0.653237,-1.117904,1.222639
1515648620,0.72252,-1.541278,-0.305791,0.987051,-1.028586,1.854015
1515648620,0.573268,-1.440626,-0.130122,1.021484,-1.112555,2.176023
1515648620,0.505653,-1.304537,-0.045861,1.083777,-0.86114,2.409571
1515648620,0.536799,-1.173211,-0.07946,1.346521,-0.488661,2.573734
1515648620,0.614203,-0.992543,-0.158668,1.688984,-0.139387,2.76601
1515648620,0.716024,-0.814384,-0.264058,1.927925,0.186564,3.004671
1515648620,0.894801,-0.629994,-0.39473,2.058345,0.41575,3.243886
1515648620,1.014078,-0.45047,-0.555386,2.162942,0.395607,3.574745
1515648620,1.0691,-0.252272,-0.69062,2.418277,0.041477,4.043984
1515648620,1.064917,-0.055446,-0.733887,2.790064,-0.483649,4.474462
1515648620,1.003489,0.18501,-0.639566,2.980451,-0.875556,4.764378
1515648620,0.957662,0.354481,-0.553166,2.766616,-1.017046,4.756982
1515648620,0.975604,0.466173,-0.483876,2.497585,-1.096612,4.523376
1515648620,0.969478,0.582158,-0.429726,2.259894,-1.066487,4.376192
1515648620,0.782894,0.701169,-0.34863,1.94797,-1.074749,4.554723
1515648620,0.634533,0.821923,-0.240697,1.620165,-0.968994,4.511475
1515648620,0.619124,0.943573,-0.207718,1.485247,-0.520881,3.823284
1515648620,0.578222,1.0906,-0.160142,1.815204,-0.163367,3.225914
1515648620,0.370118,1.536265,0.049571,2.258711,-0.332008,3.156823
1515648620,0.122369,1.954751,0.315999,2.307657,-0.25668,2.407938
1515648620,-0.195363,1.926672,0.402339,2.518332,0.537411,0.812386
1515648620,-0.304514,1.786063,0.320821,3.130089,1.386256,-0.364557
1515648620,-0.193924,1.939316,0.163762,2.786104,1.578537,-0.942844
1515648620,-0.28993,1.931301,0.096973,1.104262,0.833571,-0.896543
1515648620,-0.313574,1.959371,0.176426,-0.741569,0.172767,-1.41798
1515648620,-0.244841,1.813765,0.151582,-1.626515,0.231798,-2.333503
1515648620,-0.0684,1.590864,0.079848,-1.656136,0.41683,-2.954961
1515648620,0.178931,1.4864,0.002325,-1.712188,0.390044,-3.01596
1515648620,0.252748,1.393925,0.02076,-2.402574,-0.029216,-3.055441
1515648620,0.372609,1.289001,-0.047487,-3.210181,-0.023974,-3.521932
1515648620,0.57985,1.175343,-0.166902,-3.625566,0.247374,-3.918408
1515648620,0.793797,1.038392,-0.338256,-3.653329,0.503715,-4.134985
1515648620,0.840814,0.839371,-0.403495,-3.33418,0.447923,-4.075813
1515648620,0.811544,0.619487,-0.417863,-2.959731,0.343381,-3.997171
1515648620,0.820338,0.479606,-0.429696,-2.757164,0.185276,-4.015262
1515648620,0.790235,0.226634,-0.358556,-2.688306,0.004012,-3.922119
1515648620,0.772733,0.058209,-0.34525,-2.729749,0.072416,-3.763597
1515648620,0.789481,-0.059872,-0.411105,-2.819398,0.302283,-3.581946
1515648620,0.790756,-0.145271,-0.506541,-2.942727,0.421007,-3.264019
1515648620,0.761476,-0.249732,-0.579795,-3.169081,0.304902,-2.949685
1515648620,0.733302,-0.380339,-0.616521,-3.355475,0.094062,-2.717157
1515648620,0.703798,-0.497905,-0.572088,-3.305597,-0.070839,-2.473875
1515648620,0.73499,-0.572902,-0.584878,-3.168127,0.19093,-2.353969
1515648620,0.802108,-0.986558,-0.793198,-2.712936,0.854034,-2.378664
1515648620,0.870326,-1.325699,-1.00158,-1.677142,1.346151,-2.240526
1515648620,0.904643,-1.491674,-1.154334,-0.574424,1.459999,-1.824831
1515648620,0.879822,-1.469364,-1.133682,0.502991,1.041378,-1.173498
1515648620,0.907868,-1.452477,-0.98118,1.42903,0.559509,-0.665685
1515648620,0.896665,-1.469999,-0.84223,1.847955,0.229095,-0.133835
1515648620,0.94298,-1.356403,-0.695011,1.798803,-0.154523,0.519299
1515648621,0.88217,-1.25667,-0.661704,1.747038,-0.261895,1.208514
1515648621,0.774032,-1.054576,-0.587622,1.951557,-0.464385,1.970449
1515648621,0.728447,-0.8182,-0.498885,2.163712,-0.525276,2.490469
1515648621,0.701896,-0.668062,-0.448213,2.309774,-0.41691,2.808678
1515648621,0.728809,-0.525673,-0.450148,2.419505,-0.246936,3.139471
1515648621,0.777647,-0.332513,-0.47782,2.4914,-0.138829,3.394447
1515648621,0.846429,-0.135121,-0.494321,2.517525,-0.165082,3.485165
1515648621,0.906866,0.019891,-0.481844,2.593865,-0.139363,3.53668
1515648621,0.923685,0.109129,-0.477754,2.662359,-0.008357,3.638185
1515648621,0.860132,0.218066,-0.484227,2.581879,0.102845,3.912644
1515648621,0.741183,0.325169,-0.489504,2.323674,0.065209,4.196939
1515648621,0.664326,0.454938,-0.4828,1.996337,-0.106842,4.306205
1515648621,0.623034,0.567347,-0.434159,1.825527,-0.391814,4.249021
1515648621,0.520854,0.650796,-0.334385,1.865305,-0.535279,4.207734
1515648621,0.411898,0.747582,-0.255828,1.876951,-0.510814,4.215243
1515648621,0.339176,0.878167,-0.215463,1.707783,-0.393785,3.986299
1515648621,0.317642,0.973675,-0.19489,1.463112,-0.27955,3.556665
1515648621,0.324043,1.051602,-0.172034,1.2296,-0.129475,3.032237
1515648621,0.257805,1.227793,-0.147576,1.056398,0.034145,2.756372
1515648621,0.103042,1.446085,-0.128979,0.761141,0,2.446964
1515648621,0.000359,1.545396,-0.047068,0.697918,-0.107166,1.794578
1515648621,0.01259,1.68573,0.071404,1.11173,0.084406,1.085819
1515648621,-0.190031,1.69039,0.14852,1.129464,0.451345,0.90032
1515648621,-0.286357,1.779605,0.120601,0.500387,0.551968,0.662696
1515648621,-0.23274,1.766339,0.073582,0.351326,0.359532,-0.4163
1515648621,-0.238704,1.602036,0.122007,0.576648,0.009003,-1.210979
1515648621,-0.265209,1.436466,0.30166,0.391918,-0.50316,-1.585661
1515648621,-0.137016,1.481519,0.457729,-0.117934,-0.618443,-1.965361
1515648621,-0.030151,1.400237,0.465018,-0.699838,-0.286028,-2.485237
1515648621,0.050037,1.244083,0.338094,-1.072023,0.056728,-2.814397
1515648621,0.14777,1.198039,0.19752,-1.380458,0.143796,-3.074911
1515648621,0.24958,1.172715,0.100584,-1.821028,0.034903,-3.469195
1515648621,0.339237,1.088257,0.023461,-2.137362,-0.020102,-3.998203
1515648621,0.446886,0.93945,-0.019331,-2.088926,0.149465,-4.489269
1515648621,0.56897,0.808622,-0.111372,-1.777475,0.438724,-4.819245
1515648621,0.690296,0.671097,-0.219421,-1.482257,0.526422,-5.068216
1515648621,0.811453,0.517577,-0.274631,-1.37152,0.417697,-5.234904
1515648621,0.954946,0.33641,-0.303489,-1.526367,0.335493,-5.326208
1515648621,1.091785,0.106105,-0.371376,-1.792221,0.446007,-5.218906
1515648621,1.171426,-0.13219,-0.503595,-2.062624,0.588569,-4.696072
1515648621,1.165436,-0.313956,-0.685996,-2.407542,0.312306,-3.917667
1515648621,1.127272,-0.461316,-0.761598,-2.665798,-0.596249,-3.286631
1515648621,1.093192,-0.550603,-0.619167,-2.789801,-1.209114,-2.908674
1515648621,1.015229,-0.683707,-0.561376,-2.648569,-1.068092,-2.681065
1515648621,1.032248,-0.908913,-0.563576,-1.791628,-0.695625,-2.7132
1515648621,1.128122,-1.158832,-0.564495,-0.742124,-0.398243,-2.703832
1515648621,1.230867,-1.377404,-0.481501,-0.063329,-0.214671,-2.274306
1515648621,1.297424,-1.601474,-0.461759,0.3562,0.178049,-1.788629
1515648621,1.303154,-1.811078,-0.46102,0.852176,0.478088,-1.064916
1515648621,1.426729,-1.706197,-0.441734,1.379687,0.796982,-0.087443
1515648622,1.377761,-1.568723,-0.477328,1.715525,0.937913,1.108661
1515648622,1.188021,-1.261819,-0.402896,1.838116,0.703015,2.422165
1515648622,0.977171,-0.923343,-0.318604,1.772021,0.565103,3.2019
1515648622,0.797414,-0.708992,-0.252883,1.771942,0.611901,3.578019
1515648622,0.733251,-0.519251,-0.246106,1.993081,0.999233,3.752613
1515648622,0.762138,-0.317115,-0.305618,2.367672,1.482197,3.889578
1515648622,0.783215,-0.156351,-0.402784,2.638898,1.718827,4.083684
1515648622,0.826405,0.002764,-0.454,2.61025,1.577062,4.27648
1515648622,0.835107,0.219433,-0.426275,2.174052,1.23626,4.459877
1515648622,0.766171,0.328766,-0.419706,1.540055,0.897252,4.599656
1515648622,0.703192,0.438984,-0.431145,1.005238,0.626201,4.700476
1515648622,0.633669,0.576672,-0.425482,0.663546,0.325406,4.736211
1515648622,0.516774,0.700522,-0.409623,0.490537,0.027724,4.692869
1515648622,0.402697,0.780372,-0.368088,0.474831,-0.259593,4.511789
1515648622,0.351935,0.85596,-0.328856,0.572782,-0.479276,4.181
1515648622,0.224959,0.879354,-0.185931,0.670611,-0.527992,3.8416
1515648622,0.170081,0.94463,-0.129923,0.620555,-0.373105,3.445951
1515648622,0.12575,0.986663,-0.121667,0.442121,-0.228143,2.971871
1515648622,0.105491,1.025615,-0.071136,0.160776,-0.159898,2.44724
1515648622,0.055423,1.225726,-0.050953,-0.063053,-0.080949,2.287306
1515648622,0.008977,1.392213,-0.030441,-0.235218,-0.466614,2.298361
1515648622,-0.144689,1.711019,0.288643,-0.236819,-0.778523,1.70499
1515648622,-0.171489,1.754059,0.339122,-0.408144,-0.314458,0.679901
1515648622,-0.331763,1.653926,0.251294,-0.872463,-0.126531,0.105278
1515648622,-0.352463,1.646138,0.234319,-1.219804,-0.183629,-0.401515
1515648622,-0.332734,1.525037,0.284392,-1.158429,-0.194646,-1.260049
1515648622,-0.223366,1.347571,0.331354,-0.695848,-0.011961,-2.115603
1515648622,-0.074496,1.261921,0.311723,-0.318391,0.281064,-2.629588
1515648622,-0.024921,1.159656,0.245129,-0.407009,0.369707,-2.788851
1515648622,0.009443,1.053373,0.17119,-0.853917,0.217832,-2.997721
1515648622,0.120218,1.027176,0.109113,-1.386377,0.054882,-3.32637
1515648622,0.229574,0.954156,0.065535,-1.77073,-0.010317,-3.690554
1515648622,0.327354,0.870523,0.020416,-1.857925,0.169435,-3.927638
1515648622,0.443176,0.808449,-0.064854,-1.811267,0.446081,-4.127865
1515648622,0.566032,0.753452,-0.141893,-1.704818,0.594258,-4.334123
1515648622,0.674925,0.6251,-0.212114,-1.69609,0.599972,-4.556782
1515648622,0.710802,0.497297,-0.234285,-2.015967,0.385972,-4.62647
1515648622,0.788387,0.233398,-0.228058,-2.51838,0.16142,-4.613951
1515648622,0.844006,-0.027761,-0.322749,-2.747712,0.13011,-4.352962
1515648622,0.860621,-0.140016,-0.411107,-2.642154,0.10158,-3.6321
1515648622,0.878057,-0.175445,-0.473962,-2.307588,0.100277,-3.115756
1515648622,0.907763,-0.378332,-0.49751,-1.677444,0.165749,-3.093459
1515648622,0.941442,-0.644406,-0.486995,-1.069294,0.265537,-2.955139
1515648622,0.967056,-0.821545,-0.450831,-0.612694,0.234292,-2.546857
1515648622,0.986549,-0.95803,-0.470365,-0.399457,0.302338,-2.23788
1515648622,0.988659,-1.139615,-0.562321,-0.372403,0.257606,-1.935101
1515648622,1.035133,-1.266051,-0.608265,-0.392909,0.052915,-1.480102
1515648622,1.153228,-1.270332,-0.631091,-0.185713,-0.096276,-1.008013
1515648622,1.124438,-1.34838,-0.650316,0.310391,-0.033579,-0.45041
1515648622,1.117121,-1.333652,-0.678824,0.904182,0.190211,0.312198
1515648623,0.988996,-1.205035,-0.690766,1.222009,0.152693,1.15347
1515648623,0.814703,-1.024372,-0.600712,1.416752,-0.269434,1.987927
1515648623,0.717706,-0.811711,-0.48768,1.641401,-0.372627,2.564504
1515648623,0.643833,-0.625299,-0.426565,1.930428,-0.288679,2.837628
1515648623,0.60847,-0.491267,-0.387989,2.270019,-0.186907,3.017227
1515648623,0.622864,-0.33708,-0.359269,2.488707,-0.087634,3.113102
1515648623,0.655052,-0.181901,-0.319937,2.53923,0.040109,3.193215
1515648623,0.678966,-0.031713,-0.312578,2.440492,0.239982,3.293848
1515648623,0.711732,0.100662,-0.386182,2.245576,0.432517,3.456877
1515648623,0.715587,0.260757,-0.495453,2.064459,0.37775,3.670173
1515648623,0.648543,0.380328,-0.538511,1.976303,-0.00404,3.8841
1515648623,0.539167,0.483303,-0.49385,2.009147,-0.422159,3.9857
1515648623,0.415469,0.567958,-0.420798,2.061702,-0.673881,3.963715
1515648623,0.328443,0.658262,-0.356479,1.92691,-0.821793,3.914095
1515648623,0.320518,0.757187,-0.290264,1.585476,-1.037297,3.70471
1515648623,0.318912,0.828821,-0.130831,1.338261,-1.119227,3.381715
1515648623,0.26136,0.879581,-0.018389,1.270887,-0.747109,3.18193
1515648623,0.165297,0.980736,0.119965,1.405423,-0.659064,3.101579
1515648623,0.066224,1.260131,0.392037,1.458016,-0.737784,3.042209
1515648623,-0.125961,1.448297,0.641995,1.147745,-0.674782,2.549405
1515648623,-0.300712,1.452674,0.795301,0.510517,-0.119017,1.797917
1515648623,-0.156448,1.564471,0.695528,-0.055117,0.918051,0.732204
1515648623,-0.08256,1.668295,0.424142,-0.426643,1.33264,0.275139
1515648623,-0.086798,1.795522,0.298705,-0.877626,0.948192,0.074887
1515648623,-0.161026,1.737423,0.25744,-1.379216,0.724716,-0.612674
1515648623,-0.144228,1.603584,0.167945,-1.661089,0.750162,-1.594419
1515648623,-0.1343,1.346414,0.08396,-1.456371,0.658822,-2.369079
1515648623,-0.074727,1.125222,0.111397,-0.853554,0.553135,-2.748541
1515648623,-0.002638,0.995871,0.131822,-0.364851,0.665086,-2.764267
1515648623,0.011523,0.878453,0.104135,-0.505368,0.745098,-2.598785
1515648623,0.034264,0.766729,0.001215,-1.27236,0.62246,-2.514119
1515648623,0.108214,0.706991,-0.115598,-2.166671,0.497336,-2.507874
1515648623,0.190324,0.64192,-0.259668,-2.84927,0.496705,-2.493178
1515648623,0.257807,0.588378,-0.449998,-3.119513,0.546229,-2.537169
1515648623,0.267265,0.495437,-0.603931,-3.015481,0.325141,-2.629246
1515648623,0.247475,0.397885,-0.464827,-2.796773,-0.079862,-2.818687
1515648623,0.250004,0.247904,-0.320079,-2.490121,0.100846,-3.221091
1515648623,0.298589,0.028393,-0.432412,-2.068325,0.7439,-3.545365
1515648623,0.412073,-0.065621,-0.587253,-1.639824,0.872018,-3.463367
1515648623,0.454985,-0.161356,-0.591619,-1.769457,-0.040597,-3.165207
1515648623,0.434638,-0.297379,-0.461313,-2.487104,-1.15852,-2.784638
1515648623,0.448858,-0.315667,-0.412223,-3.139334,-1.573347,-2.423273
1515648623,0.516261,-0.319679,-0.487835,-3.198672,-1.313439,-2.148789
1515648623,0.629446,-0.41702,-0.5992,-2.818029,-1.070744,-2.095845
1515648623,0.708804,-0.628921,-0.610808,-2.426939,-1.203221,-2.128992
1515648623,0.855763,-0.801676,-0.560987,-2.200027,-1.304409,-1.946662
1515648623,1.042834,-0.947997,-0.577051,-1.9602,-0.944402,-1.683513
1515648623,1.179361,-1.168861,-0.690792,-1.642389,-0.501099,-1.29428
1515648623,1.367812,-1.280876,-0.817131,-1.363944,-0.425632,-0.659975
1515648623,1.312381,-1.315847,-0.867625,-1.260933,-1.030354,0.233777
1515648624,1.010391,-1.288355,-0.697024,-1.06141,-2.277996,1.678172
1515648624,0.744003,-1.079459,-0.352102,-0.432076,-3.268202,2.767618
1515648624,0.630433,-0.806401,-0.017191,0.626631,-3.186609,3.065902
1515648624,0.586257,-0.663248,0.158776,1.931365,-1.995014,2.973811
1515648624,0.625257,-0.530774,0.135051,2.924461,-0.629264,2.977036
1515648624,0.660456,-0.341801,0.076543,3.132546,-0.040105,3.165324
1515648624,0.604235,-0.172835,0.05845,2.572126,-0.099362,3.422545
1515648624,0.582818,-0.098859,-0.014053,1.604463,-0.266525,3.601063
1515648624,0.666959,-0.013193,-0.141192,0.788152,-0.457528,3.571502
1515648624,0.76364,0.155776,-0.24514,0.344591,-0.725702,3.540643
1515648624,0.766956,0.308851,-0.239461,0.297788,-1.239542,3.622715
1515648624,0.635172,0.398756,-0.146917,0.557629,-1.518991,3.850051
1515648624,0.495585,0.464982,-0.047027,0.955838,-1.448527,3.840292
1515648624,0.378072,0.534329,0.103904,1.359264,-1.30745,3.650433
1515648624,0.226085,0.60957,0.278133,1.580891,-1.17143,3.600336
1515648624,0.059863,0.763106,0.459265,1.407127,-0.985731,3.603633
1515648624,-0.055652,0.899298,0.557757,0.889666,-0.663048,3.358997
1515648624,-0.090177,1.000923,0.563145,0.332498,-0.213966,2.776323
1515648624,-0.064706,1.060858,0.505133,0.08257,0.19371,2.098237
1515648624,-0.076243,1.157143,0.469485,-0.002207,0.351533,1.629957
1515648624,-0.115669,1.208142,0.465254,-0.170061,0.350052,1.193298
1515648624,-0.132257,1.285552,0.520031,-0.135624,0.451193,0.556214
1515648624,-0.025699,1.427362,0.483195,0.162384,0.930191,-0.247033
1515648624,-0.148679,1.419754,0.424262,0.092711,1.030098,-0.55431
1515648624,-0.110574,1.499958,0.435251,-0.470464,0.875525,-0.912952
1515648624,0.034766,1.529363,0.339869,-0.807412,1.122123,-1.798107
1515648624,0.017527,1.315326,0.267051,-0.839647,1.206555,-2.318307
1515648624,-0.015066,1.068668,0.200947,-0.927714,1.125069,-2.543547
1515648624,0.052742,0.969509,0.144382,-1.139271,1.011111,-2.580773
1515648624,0.120515,0.964038,0.100463,-1.739232,0.780431,-2.453663
1515648624,0.150239,0.948023,0.000537,-2.60803,0.465345,-2.406704
1515648624,0.195333,0.911979,-0.077741,-3.320266,0.279336,-2.575337
1515648624,0.333895,0.922053,-0.192592,-3.574249,0.457663,-2.878253
1515648624,0.481969,0.848902,-0.281509,-3.362612,0.715901,-3.250267
1515648624,0.546088,0.709233,-0.344811,-2.815406,0.959011,-3.463962
1515648624,0.538765,0.539978,-0.377277,-2.332809,1.163162,-3.544761
1515648624,0.52404,0.390485,-0.424023,-2.2143,1.213003,-3.609193
1515648624,0.523286,0.229362,-0.469116,-2.475612,1.004363,-3.680726
1515648624,0.528113,0.089597,-0.498918,-3.024121,0.650421,-3.591655
1515648624,0.567036,-0.022027,-0.545838,-3.616222,0.35216,-3.337666
1515648624,0.636239,-0.108939,-0.610556,-3.898151,0.161799,-2.974562
1515648624,0.637596,-0.179059,-0.648036,-4.043265,-0.021781,-2.519142
1515648624,0.616061,-0.202178,-0.681498,-4.360695,-0.252315,-2.084793
1515648624,0.632495,-0.231239,-0.745705,-4.64643,-0.379221,-1.811242
1515648624,0.645664,-0.247425,-0.844406,-4.78732,-0.390303,-1.564733
1515648624,0.650866,-0.291541,-1.000947,-4.807819,-0.542483,-1.305827
1515648624,0.638473,-0.351243,-1.155515,-4.557742,-0.867492,-1.03909
1515648624,0.662171,-0.292298,-1.216635,-3.977839,-1.155444,-0.919897
1515648624,0.641552,-0.359949,-1.273726,-2.963825,-1.044798,-1.18767
1515648624,0.684742,-0.650339,-1.363523,-1.494614,-0.796479,-1.38715
1515648625,0.702634,-0.893225,-1.39963,0.053756,-0.717017,-1.25158
1515648625,0.574119,-1.129001,-1.405217,1.602801,-0.828368,-0.643862
1515648625,0.528698,-1.174603,-1.235258,3.323849,-1.409546,0.131175
1515648625,0.52625,-0.998662,-0.763963,4.133054,-1.953198,0.969825
1515648625,0.474157,-0.858026,-0.363839,3.933492,-1.990255,1.425976
1515648625,0.490784,-0.756493,-0.238162,3.651209,-1.549383,1.555412
1515648625,0.545033,-0.630105,-0.349441,3.61969,-1.071909,1.768124
1515648625,0.667923,-0.469088,-0.446955,3.74458,-0.989094,2.070267
1515648625,0.771777,-0.314508,-0.407949,3.832907,-1.078656,2.279602
1515648625,0.818998,-0.209442,-0.314639,3.918788,-0.878263,2.493042
1515648625,0.886636,-0.118015,-0.263608,3.944648,-0.663916,2.773311
1515648625,0.963249,-0.005919,-0.164229,3.861879,-0.536714,3.072255
1515648625,0.958666,0.119444,-0.098396,3.283345,-0.551902,3.509446
1515648625,0.884072,0.229214,-0.058134,2.497337,-0.906,3.978796
1515648625,0.748871,0.368025,0.069752,1.872169,-1.201081,4.242205
1515648625,0.602948,0.488249,0.148293,1.435132,-1.243721,4.333807
1515648625,0.408647,0.59664,0.14285,1.103298,-1.150823,4.253256
1515648625,0.344576,0.72322,0.139968,0.872553,-1.063668,3.998448
1515648625,0.340339,0.843892,0.156621,0.724248,-0.966041,3.664144
1515648625,0.369176,0.945051,0.225021,0.714665,-0.781399,3.261221
1515648625,0.293075,1.042928,0.356461,1.004088,-0.457304,2.867184
1515648625,0.215242,1.212466,0.499855,1.361767,-0.127332,2.638651
1515648625,0.220516,1.502644,0.577378,1.460451,0.17011,2.27457
1515648625,0.112903,1.740882,0.605633,0.936711,0.271891,1.679449
1515648625,-0.105721,1.782835,0.669652,-0.134842,-0.055453,1.250152
1515648625,-0.162907,1.814312,0.616013,-1.208287,0.054932,0.518014
1515648625,-0.09294,1.751436,0.406677,-1.702653,0.639353,-0.640881
1515648625,-0.007233,1.593349,0.271797,-1.366849,1.017774,-1.703886
1515648625,0.007231,1.357345,0.245104,-0.574291,1.152558,-2.34892
1515648625,0.074619,1.271918,0.271509,-0.049324,1.241668,-2.556252
1515648625,0.129979,1.285525,0.28035,-0.254388,1.282636,-2.639348
1515648625,0.208642,1.283006,0.246661,-1.111257,1.167509,-2.851368
1515648625,0.350783,1.205021,0.146487,-2.029199,1.118852,-3.192648
1515648625,0.503313,1.1085,0.028557,-2.626134,1.204544,-3.462068
1515648625,0.656496,1.028769,-0.078964,-3.054483,1.366143,-3.620927
1515648625,0.736302,0.914872,-0.204132,-3.462859,1.520463,-3.733865
1515648625,0.77204,0.758238,-0.376194,-3.861569,1.548427,-3.839237
1515648625,0.788118,0.575323,-0.500288,-3.916158,1.256051,-3.923544
1515648625,0.825874,0.408929,-0.539446,-3.53216,0.935494,-3.986463
1515648625,0.810587,0.267337,-0.596905,-3.101372,0.771616,-3.880867
1515648625,0.714855,0.080294,-0.647712,-2.896816,0.472963,-3.664451
1515648625,0.656377,-0.096096,-0.655376,-2.94233,0.046608,-3.451353
1515648625,0.668787,-0.219167,-0.717152,-3.280857,-0.315176,-3.214176
1515648625,0.693583,-0.333119,-0.787149,-3.75955,-0.792459,-2.839133
1515648625,0.670862,-0.472276,-0.841792,-4.184297,-1.183507,-2.415899
1515648625,0.63013,-0.608505,-0.918649,-4.47584,-1.256536,-1.88241
1515648625,0.554426,-0.783979,-1.092048,-4.632709,-1.174163,-1.280125
1515648625,0.436467,-0.927762,-1.2668,-4.426347,-1.085143,-0.704802
1515648625,0.401897,-0.996398,-1.389451,-3.75478,-0.850742,-0.323285
1515648625,0.460723,-0.984448,-1.56997,-2.69739,-0.43413,-0.224427
1515648626,0.465637,-1.037265,-1.709108,-1.450791,-0.474679,0.009862
1515648626,0.392774,-0.972273,-1.655834,-0.36419,-1.183438,0.595315
1515648626,0.212558,-0.886116,-1.30847,0.339286,-2.343814,1.227027
1515648626,0.102602,-0.75991,-0.907355,0.630474,-3.006127,1.6252
1515648626,0.136166,-0.667569,-0.65471,0.842516,-3.065437,1.609248
1515648626,0.298936,-0.600181,-0.613168,1.095155,-2.758564,1.504867
1515648626,0.459878,-0.524546,-0.581003,1.309319,-2.717539,1.657226
1515648626,0.642329,-0.436473,-0.393342,1.618412,-2.928083,1.825103
1515648626,0.882709,-0.439972,-0.266889,2.240294,-2.628156,1.761999
1515648626,1.144194,-0.405464,-0.183105,2.910598,-2.089551,1.93984
1515648626,1.321082,-0.173483,-0.076427,3.401572,-1.822085,2.428058
1515648626,1.351118,0.006306,0.034756,3.659535,-1.708849,2.914128
1515648626,1.248007,0.18188,0.157903,3.762163,-1.597958,3.379171
1515648626,1.073844,0.367031,0.235844,3.661735,-1.55486,3.616269
1515648626,0.825577,0.481862,0.315508,3.59425,-1.412474,3.661678
1515648626,0.658822,0.532393,0.321122,3.367374,-1.1356,3.627373
1515648626,0.616212,0.65072,0.351585,2.640381,-1.205489,3.227384
1515648626,0.583585,0.647361,0.403265,2.111513,-1.215225,2.988188
1515648626,0.488844,0.669469,0.539741,2.067432,-0.936426,2.827994
1515648626,0.366001,0.740711,0.604381,2.024315,-0.234536,2.796525
1515648626,0.273101,0.892824,0.591398,1.832964,0.413704,2.630088
1515648626,0.159307,0.959704,0.585638,1.590469,0.784294,2.332463
1515648626,0.079533,1.005652,0.612726,1.140456,1.001763,2.042398
1515648626,0.114039,1.209047,0.618481,0.441155,1.292302,1.762773
1515648626,0.186312,1.472854,0.481302,-0.350202,1.847832,1.336579
1515648626,0.085666,1.551706,0.2657,-1.030132,1.95252,1.053948
1515648626,-0.091653,1.493234,0.121689,-1.322234,1.620615,0.617898
1515648626,-0.154496,1.461797,0.102532,-1.265023,1.291093,-0.201069
1515648626,-0.065265,1.468134,0.134983,-1.316787,1.258322,-1.193352
1515648626,0.013745,1.398569,0.093234,-1.398244,1.291329,-1.846962
1515648626,0.03323,1.316486,0.121212,-1.468023,1.060092,-2.078428
1515648626,0.093211,1.360706,0.190215,-1.929179,0.968915,-2.227735
1515648626,0.2052,1.421478,0.121842,-2.957467,1.18375,-2.498312
1515648626,0.287041,1.41968,0.00469,-3.9978,1.329754,-2.698583
1515648626,0.334279,1.34743,-0.059673,-4.650385,1.377317,-2.912861
1515648626,0.40906,1.300518,-0.133679,-5.202546,1.575047,-3.025467
1515648626,0.477805,1.258937,-0.30249,-5.701808,1.779361,-3.081352
1515648626,0.480631,1.161216,-0.42857,-5.863661,1.582275,-3.230173
1515648626,0.534976,1.067044,-0.45798,-5.777306,1.435764,-3.594088
1515648626,0.705391,0.985386,-0.568629,-5.550816,1.537998,-3.929726
1515648626,0.8592,0.942486,-0.687945,-5.25327,1.525306,-4.010276
1515648626,0.887968,0.764327,-0.782069,-5.000216,1.352719,-3.917284
1515648626,0.815191,0.604435,-0.84014,-4.896276,1.194366,-3.633245
1515648626,0.76117,0.512891,-0.902966,-4.993279,0.962409,-3.388538
1515648626,0.697641,0.424553,-1.003432,-5.139101,0.750493,-3.174985
1515648626,0.599528,0.273923,-1.078772,-5.18132,0.52577,-3.015253
1515648626,0.616028,0.10454,-1.205751,-5.054669,0.537606,-3.007161
1515648626,0.698103,-0.116133,-1.408537,-4.873099,0.558213,-2.923153
1515648626,0.858158,-0.322884,-1.716267,-4.779461,0.426206,-2.704177
1515648627,0.900967,-0.63534,-2.059577,-4.451264,-0.079381,-2.473182
1515648627,0.754917,-0.948292,-2.215215,-3.530723,-0.938003,-1.86931
1515648627,0.526696,-0.879161,-2.018964,-2.033121,-2.147335,-0.825486
1515648627,0.180797,-1.041198,-1.733225,-0.541927,-2.72244,-0.075044
1515648627,-0.031291,-1.262117,-1.46199,0.531887,-2.966217,0.801008
1515648627,0.128964,-1.011476,-1.388424,0.460941,-2.814087,1.261967
1515648627,0.331225,-0.758007,-1.399208,-0.167372,-3.173493,0.972368
1515648627,0.497521,-0.60143,-1.274881,-0.111406,-3.692832,0.959052
1515648627,0.724856,-0.521058,-1.066155,0.612654,-3.960188,0.816825
1515648627,1.087357,-0.487426,-0.823787,1.855336,-3.86672,0.411685
1515648627,1.526241,-0.514054,-0.625002,3.305038,-3.298734,0.215136
1515648627,1.792135,-0.517147,-0.419223,4.526698,-2.732896,0.792112
1515648627,1.895022,-0.369496,-0.229265,5.357705,-2.383448,1.942641
1515648627,1.824908,-0.138575,0.030632,5.388474,-2.524389,3.097934
1515648627,1.599963,0.15125,0.342331,4.478946,-3.009108,3.963131
1515648627,1.340552,0.343855,0.495795,3.15244,-3.376689,4.364782
1515648627,1.080061,0.462421,0.549099,2.269196,-3.41498,4.282595
1515648627,0.852692,0.520863,0.615475,2.130722,-3.025005,4.038763
1515648627,0.673891,0.576507,0.635027,2.214731,-2.315271,3.747931
1515648627,0.577872,0.7002,0.642594,1.928584,-1.907567,3.443681
1515648627,0.520817,0.827211,0.668755,1.583592,-1.650007,3.029453
1515648627,0.467166,0.866144,0.732255,1.654663,-1.098927,2.608634
1515648627,0.411928,0.94831,0.743269,2.059428,-0.239845,2.431219
1515648627,0.309369,1.152723,0.825303,2.048792,0.0977,2.370261
1515648627,0.258494,1.373636,0.894078,1.539621,0.34459,1.993577
1515648627,0.273296,1.567014,0.837357,0.921953,0.944245,1.350852
1515648627,0.1479,1.598369,0.638072,0.304229,1.450016,0.920225
1515648627,0.029347,1.660424,0.44171,-0.547975,1.452515,0.617602
1515648627,-0.068108,1.64292,0.305341,-1.344697,1.172589,-0.026654
1515648627,-0.154435,1.49218,0.312248,-1.494449,0.978947,-0.799837
1515648627,-0.130829,1.406165,0.415011,-1.23107,1.078177,-1.440041
1515648627,-0.039201,1.352458,0.423785,-1.068228,1.528408,-1.87739
1515648627,0.028948,1.31694,0.358836,-1.320741,1.844015,-2.089797
1515648627,0.113486,1.286466,0.228255,-2.038356,1.971179,-2.303363
1515648627,0.257318,1.31239,0.095744,-2.923933,2.038586,-2.553974
1515648627,0.409046,1.379798,-0.048889,-3.764235,2.155134,-2.724466
1515648627,0.520977,1.398368,-0.214808,-4.452215,2.273935,-2.90484
1515648627,0.605098,1.364296,-0.379765,-5.024529,2.182305,-3.166596
1515648627,0.652044,1.256087,-0.475732,-5.330945,1.828343,-3.516393
1515648627,0.687478,1.105963,-0.517936,-5.246556,1.583019,-3.891996
1515648627,0.739954,0.933266,-0.532369,-4.883691,1.569645,-4.221559
1515648627,0.841843,0.755022,-0.55948,-4.297316,1.743911,-4.383879
1515648627,1.015613,0.588169,-0.640599,-3.461688,2.018215,-4.20934
1515648627,1.162486,0.489207,-0.745767,-2.352505,2.308804,-3.651973
1515648627,1.199916,0.285543,-0.954223,-1.554659,2.267513,-3.517958
1515648627,1.169578,-0.35928,-1.060937,-1.692301,1.371553,-3.682306
1515648627,1.386364,-1.484108,-1.121352,-3.194888,0.596287,-3.881238
1515648627,1.443386,-2.233434,-1.532708,-3.591271,0.298931,-3.037014
1515648627,1.235591,-1.740085,-1.506017,-1.286813,0.456278,-1.265253
1515648627,0.849179,-1.464533,-1.191756,0.967817,0.534807,-0.258777
1515648628,0.886351,-1.387413,-1.075923,1.871367,0.669067,-0.762595
1515648628,0.954115,-1.511038,-0.954899,1.918932,0.290337,-0.635368
1515648628,1.046723,-1.534004,-0.918034,1.716429,0.122062,-0.016146
1515648628,0.975098,-1.38396,-0.913006,1.712338,-0.245708,0.946226
1515648628,0.729439,-1.224076,-0.776338,1.882621,-0.845151,1.80622
1515648628,0.572011,-1.036574,-0.495974,2.00369,-1.325684,2.315334
1515648628,0.593423,-0.810567,-0.23634,2.025212,-1.154318,2.431506
1515648628,0.716571,-0.688442,-0.199305,2.231839,-0.440755,2.666613
1515648628,0.875368,-0.477129,-0.328864,2.427675,0.075979,3.14577
1515648628,0.997261,-0.213017,-0.416011,2.406271,0.030978,3.728549
1515648628,1.055049,0.02129,-0.372965,2.305174,-0.033302,4.285357
1515648628,1.030965,0.265228,-0.379092,2.163257,0.184385,4.671344
1515648628,0.962857,0.473603,-0.46032,1.858143,0.153609,4.779586
1515648628,0.88217,0.602023,-0.470218,1.569587,-0.375863,4.687831
1515648628,0.73629,0.720619,-0.375103,1.353913,-0.852435,4.503714
1515648628,0.559778,0.786605,-0.281486,1.239937,-1.140251,4.19107
1515648628,0.392531,0.786045,-0.169111,1.315096,-1.257319,3.73225
1515648628,0.256572,0.759891,-0.059675,1.470434,-1.214692,3.37498
1515648628,0.152759,0.74874,0.036542,1.589898,-0.977465,3.111198
1515648628,0.110966,0.786355,0.063645,1.546019,-0.588373,2.896606
1515648628,0.124848,0.862077,0.04325,1.384579,-0.284647,2.587699
1515648628,0.126273,0.93909,0.008215,1.24647,-0.165546,2.328022
1515648628,0.088855,1.156374,0.00899,1.018687,-0.312853,2.155403
1515648628,-0.013401,1.325007,0.111702,0.925631,-0.559603,1.716048
1515648628,-0.073846,1.422069,0.255711,1.333169,-0.292729,0.974188
1515648628,-0.14868,1.549227,0.252113,1.512459,0.351522,0.419609
1515648628,-0.31338,1.677839,0.202803,0.780588,0.119028,0.340404
1515648628,-0.372689,1.83633,0.249404,-0.345507,-0.298516,-0.401323
1515648628,-0.342701,1.566253,0.330746,-0.913468,-0.214126,-1.821402
1515648628,-0.209092,1.281788,0.298524,-0.791492,0.43522,-2.780127
1515648628,0.020729,1.227996,0.157125,-0.371513,1.117391,-3.165162
1515648628,0.201081,1.285588,-0.02051,-0.12424,1.371209,-3.252489
1515648628,0.26673,1.203004,-0.09844,-0.474967,0.919884,-3.4714
1515648628,0.321324,1.157641,-0.059424,-1.060344,0.333729,-3.596578
1515648628,0.4588,1.153439,-0.023994,-1.552012,0.220039,-3.805698
1515648628,0.587733,1.026351,-0.14237,-1.868299,0.648554,-4.242243
1515648628,0.627875,0.855507,-0.301157,-2.015654,0.835955,-4.387992
1515648628,0.614386,0.690357,-0.371161,-2.010212,0.591755,-4.365463
1515648628,0.642053,0.523699,-0.371417,-1.829422,0.354773,-4.470998
1515648628,0.76512,0.389751,-0.443807,-1.452698,0.373798,-4.624697
1515648628,0.855763,0.213771,-0.525462,-0.887204,0.328659,-4.634629
1515648628,0.924017,-0.006195,-0.529334,-0.374685,0.114034,-4.476394
1515648628,0.901079,-0.237565,-0.4838,-0.115868,-0.165933,-4.070038
1515648628,0.918282,-0.454642,-0.399818,-0.049655,-0.590524,-3.659253
1515648628,0.986861,-0.645956,-0.239964,-0.038487,-0.903881,-3.324457
1515648628,0.977752,-0.860695,-0.19812,-0.416837,-0.923125,-2.888397
1515648628,0.88042,-1.119489,-0.330935,-1.119463,-1.052776,-2.330297
1515648628,0.82984,-1.366354,-0.493541,-1.452242,-1.239015,-1.641377
1515648628,0.815276,-1.385027,-0.451357,-1.087442,-1.28773,-1.005526
1515648628,0.728206,-1.303695,-0.374016,-0.516325,-1.054297,-0.560574
1515648629,0.721666,-1.188124,-0.3576,0.026801,-0.703462,-0.268198
1515648629,0.761118,-1.155119,-0.336896,0.572807,-0.286694,-0.302965
1515648629,0.759475,-1.184369,-0.312672,1.127474,0.186822,-0.187474
1515648629,0.750351,-1.129378,-0.318443,1.449339,0.711973,0.22305
1515648629,0.676703,-1.06152,-0.431947,1.584473,1.058813,0.733957
1515648629,0.57889,-1.00932,-0.47486,1.714712,0.969149,1.247193
1515648629,0.550871,-0.90653,-0.375691,1.783437,0.828342,1.727112
1515648629,0.540574,-0.757552,-0.371715,1.628694,1.169168,2.099113
1515648629,0.528363,-0.624905,-0.457073,1.480832,1.770879,2.339957
1515648629,0.562639,-0.450575,-0.590381,1.407454,2.388609,2.586492
1515648629,0.643743,-0.170163,-0.570508,1.231506,3.192138,2.491443
1515648629,0.812303,-0.207599,-0.747225,1.361742,5.167007,1.901855
1515648629,1.2811,-0.19979,-1.21859,1.430852,6.589556,1.670269
1515648629,1.385898,-0.1196,-2.141241,1.308082,5.181588,2.529201
1515648629,0.993035,0.038679,-2.011912,1.521835,0.689312,5.02911
1515648629,0.665489,0.503779,-1.40068,2.063848,-1.656572,5.987736
1515648629,0.509113,0.589274,-1.077634,3.107173,-1.349359,5.031659
1515648629,0.581914,0.56955,-1.055765,4.215144,-0.766931,4.451919
1515648629,0.653183,0.648821,-0.96761,4.631522,-0.9741,4.293208
1515648629,0.608487,0.822689,-0.679571,4.200068,-1.486107,4.051552
1515648629,0.49422,0.825736,-0.366897,3.529244,-1.416744,3.673087
1515648629,0.510557,0.809034,-0.228935,3.192098,-0.319169,3.228645
1515648629,0.573093,1.02157,-0.292264,2.981987,0.853217,2.898813
1515648629,0.432147,1.15669,-0.483357,2.387108,1.005332,2.816921
1515648629,0.271122,1.439463,-0.474852,1.130098,0.11004,2.889917
1515648629,-0.04868,1.666968,-0.289331,-0.564685,-1.031857,3.034386
1515648629,-0.373737,1.942933,-0.113909,-1.659281,-1.703301,2.969566
1515648629,-0.547478,2.114617,0.011476,-1.398562,-1.490256,2.032011
1515648629,-0.576612,2.138095,0.093725,-0.080346,-0.86658,0.618967
1515648629,-0.51326,2.113964,0.186117,1.373887,-0.32805,-0.546139
1515648629,-0.436165,2.095661,0.276797,2.154691,0.116147,-1.423681
1515648629,-0.377266,1.962439,0.256831,1.981902,0.162188,-2.30578
1515648629,-0.219338,1.809239,0.260846,1.263823,-0.036401,-3.123369
1515648629,0.002768,1.68776,0.201528,0.439058,-0.120845,-3.739088
1515648629,0.246646,1.548895,0.050924,-0.282534,-0.1929,-4.15291
1515648629,0.440355,1.376622,-0.118044,-0.841623,-0.328262,-4.483826
1515648629,0.583844,1.204774,-0.222,-1.160104,-0.386953,-4.824244
1515648629,0.687853,0.983666,-0.322145,-1.140407,-0.381403,-5.103329
1515648629,0.752502,0.785497,-0.347292,-0.989847,-0.533823,-5.33585
1515648629,0.865967,0.584587,-0.336052,-0.993406,-0.703536,-5.613902
1515648629,1.015462,0.339667,-0.349297,-0.980467,-0.795957,-5.62551
1515648629,1.129156,0.122955,-0.359789,-0.913226,-0.896763,-5.264959
1515648629,1.154003,-0.030611,-0.305342,-0.962715,-1.019635,-4.784582
1515648629,1.130435,-0.233264,-0.230477,-1.206977,-1.136918,-4.503369
1515648629,1.20032,-0.47744,-0.110934,-1.221686,-1.250064,-4.332899
1515648629,1.316318,-0.650089,0.031805,-1.109146,-0.924405,-4.148157
1515648629,1.315268,-0.894597,0.075721,-1.050953,-0.316922,-3.819978
1515648629,1.482142,-1.376794,0.003926,-0.489168,0.335117,-3.676829
1515648629,1.726334,-1.874276,-0.128191,0.54575,0.812319,-3.198778
1515648629,1.932366,-2.031109,0.034591,1.291191,0.918799,-1.938804
1515648630,1.86791,-1.882275,0.228698,1.404177,1.087883,-0.136457
1515648630,1.601125,-1.628627,0.230139,0.842591,0.929606,1.452759
1515648630,1.419309,-1.358631,0.094956,-0.052659,0.568865,2.219931
1515648630,1.132612,-1.223509,-0.02761,-0.602272,0.041467,2.902605
1515648630,0.863315,-1.078934,-0.061806,-0.512796,-0.213126,3.682103
1515648630,0.819354,-0.8032,-0.184472,0.23311,0.438066,3.838949
1515648630,0.899559,-0.533988,-0.431811,1.347813,1.203516,3.723746
1515648630,0.980006,-0.291475,-0.574152,1.963591,1.455009,3.804481
1515648630,1.047475,-0.093071,-0.617675,2.067008,1.317042,3.805065
1515648630,1.10557,0.005985,-0.616016,1.812311,1.184726,3.681322
1515648630,1.17574,0.146746,-0.695109,1.302933,1.166397,3.757632
1515648630,1.139131,0.262044,-0.880458,0.74287,1.088408,4.141671
1515648630,0.945179,0.332806,-0.928586,0.357947,0.382457,4.730416
1515648630,0.702633,0.470142,-0.719281,0.18269,-0.646496,5.206354
1515648630,0.522911,0.589255,-0.538892,0.24792,-1.075432,5.232464
1515648630,0.448491,0.724808,-0.466026,0.527364,-0.98679,4.949319
1515648630,0.371239,0.823428,-0.421294,0.887999,-0.899279,4.618619
1515648630,0.2939,0.9194,-0.313965,1.065618,-0.981839,4.297761
1515648630,0.222895,1.029702,-0.180335,1.112214,-1.014628,3.976202
1515648630,0.186259,1.28273,-0.006358,1.124234,-0.917673,3.720481
1515648630,0.094148,1.501101,0.108656,1.13639,-0.570828,3.212098
1515648630,-0.043254,1.615236,0.171555,1.224812,-0.175434,2.578328
1515648630,-0.196692,1.685394,0.1759,1.23324,0.083027,1.993253
1515648630,-0.248996,1.844626,0.226852,1.128617,0.079775,1.30011
1515648630,-0.391855,1.913521,0.296015,0.793264,0.062891,0.739022
1515648630,-0.44686,2.068851,0.357592,-0.022212,0.017385,0.353495
1515648630,-0.352527,2.112985,0.281128,-0.973005,0.190362,-0.795761
1515648630,-0.270793,1.855037,0.168252,-1.046605,0.464572,-2.118635
1515648630,-0.198354,1.567473,0.12064,-0.362745,0.540368,-2.921878
1515648630,-0.121157,1.376806,0.183461,0.289935,0.461351,-3.275542
1515648630,-0.053697,1.324788,0.210008,0.321431,0.481233,-3.386208
1515648630,0.034779,1.243068,0.153287,-0.332572,0.389928,-3.514105
1515648630,0.18956,1.20493,0.021795,-1.271672,0.231331,-3.675363
1515648630,0.390511,1.206587,-0.134453,-2.128768,0.043088,-3.83406
1515648630,0.573891,1.18678,-0.302578,-2.783446,-0.139716,-4.014132
1515648630,0.744047,1.111244,-0.422155,-3.162996,-0.202511,-4.287717
1515648630,0.901606,1.043515,-0.528431,-3.138267,-0.046067,-4.542343
1515648630,1.010833,0.897158,-0.616396,-2.903728,0.030946,-4.791615
1515648630,1.028497,0.678791,-0.605465,-2.650403,-0.085012,-4.940527
1515648630,1.051402,0.47156,-0.588869,-2.567445,-0.091819,-5.109545
1515648630,1.124006,0.292525,-0.628702,-2.645505,0.009637,-5.253827
1515648630,1.210155,0.091262,-0.685506,-2.718151,-0.072047,-5.197677
1515648630,1.386598,-0.148743,-0.687881,-2.647829,-0.348502,-4.972355
1515648630,1.438277,-0.468325,-0.597337,-2.589964,-0.478593,-4.457332
1515648630,1.419397,-0.799956,-0.62536,-2.554114,-0.24049,-3.696457
1515648630,1.60926,-1.19088,-0.786089,-2.171491,0.074502,-3.26102
1515648630,1.705876,-1.600067,-0.919206,-1.624367,0.25938,-2.708542
1515648630,1.621681,-1.697446,-0.87793,-1.049593,-0.003053,-1.51637
1515648630,1.480972,-1.597417,-0.739078,-0.708336,-0.112173,-0.477813
1515648630,1.313578,-1.61755,-0.710485,-0.336777,0.090512,0.050334
1515648631,1.250597,-1.570678,-0.684494,0.314186,0.349501,0.492471
1515648631,1.252076,-1.460482,-0.715897,1.047154,0.562917,0.939304
1515648631,1.059323,-1.396585,-0.623011,1.911952,0.252738,1.698202
1515648631,0.841314,-1.243762,-0.416287,2.850613,0.076742,2.551183
1515648631,0.704943,-1.018563,-0.253639,3.499413,0.451446,2.978328
1515648631,0.677577,-0.826266,-0.200645,3.746766,1.038588,3.189192
1515648631,0.854468,-0.56716,-0.26642,3.715306,1.706051,3.359196
1515648631,1.087801,-0.240945,-0.455934,3.449039,2.092773,3.489799
1515648631,1.225733,0.023073,-0.595476,3.044901,1.865016,3.818215
1515648631,1.187662,0.213314,-0.615722,2.685155,1.377404,4.249277
1515648631,1.039356,0.343021,-0.605818,2.396946,1.05586,4.431271
1515648631,0.878275,0.408868,-0.581884,2.192814,0.853816,4.41437
1515648631,0.737719,0.456658,-0.569107,2.044721,0.654151,4.464873
1515648631,0.63022,0.549648,-0.498155,1.935493,0.483969,4.417524
1515648631,0.552436,0.624147,-0.431567,1.780975,0.470592,4.256927
1515648631,0.505486,0.659133,-0.391506,1.557064,0.609032,4.101228
1515648631,0.53057,0.745551,-0.417355,1.025959,0.69014,4.050585
1515648631,0.572649,0.88118,-0.472135,0.161052,0.4867,4.141189
1515648631,0.565398,0.989674,-0.480786,-0.686102,0.046188,4.148887
1515648631,0.584029,1.18575,-0.474373,-0.968253,-0.032134,3.975967
1515648631,0.411751,1.510254,-0.488108,-0.802935,-0.286884,3.97159
1515648631,0.01614,1.997344,-0.337329,-0.691492,-1.162897,4.001348
1515648631,-0.433145,2.286026,0.062897,-0.065096,-1.768158,3.126767
1515648631,-0.76953,2.467119,0.478555,0.775066,-1.233585,1.909562
1515648631,-0.74887,2.660893,0.575885,0.881052,-0.130567,-0.051087
1515648631,-0.662729,2.263335,0.362176,0.987839,0.700277,-2.10431
1515648631,-0.443873,1.802914,0.212456,1.266939,0.784189,-3.253763
1515648631,-0.167689,1.649416,0.174394,1.041899,0.507616,-3.325075
1515648631,-0.109895,1.477956,0.17422,-0.024749,0.019763,-3.096808
1515648631,-0.086991,1.306236,0.113198,-1.393744,-0.32779,-3.086435
1515648631,0.083241,1.27061,-0.02486,-2.36518,-0.382188,-3.197827
1515648631,0.295486,1.271546,-0.199729,-2.848752,-0.302457,-3.36758
1515648631,0.462802,1.240246,-0.361744,-3.106866,-0.376833,-3.648006
1515648631,0.601794,1.168941,-0.450883,-3.157401,-0.541777,-4.090394
1515648631,0.716634,1.022919,-0.478205,-3.067284,-0.599411,-4.568348
1515648631,0.788635,0.81283,-0.479504,-2.868582,-0.564027,-4.874257
1515648631,0.941045,0.555242,-0.497376,-2.598333,-0.368385,-5.243814
1515648631,1.050448,0.378356,-0.531136,-2.375803,-0.162284,-5.64985
1515648631,1.186942,0.087179,-0.578634,-2.284041,-0.161232,-5.68349
1515648631,1.293766,-0.144415,-0.584287,-2.141941,-0.041344,-5.418579
1515648631,1.387683,-0.447934,-0.64868,-1.84228,0.136036,-5.159299
1515648631,1.545609,-0.685091,-0.62903,-1.400683,0.20572,-4.381394
1515648631,1.48036,-0.910853,-0.633645,-1.209158,0.06758,-3.407507
1515648631,1.439485,-1.215384,-0.544784,-1.151831,-0.445443,-2.73247
1515648631,1.478781,-1.48866,-0.364524,-1.101149,-0.748711,-2.234446
1515648631,1.473994,-1.586514,-0.23873,-1.044736,-0.613723,-1.512839
1515648631,1.484666,-1.708334,-0.440497,-0.723756,0.114634,-0.984147
1515648631,1.537514,-1.783895,-0.650482,-0.052188,0.663798,-0.472788
1515648631,1.475088,-1.73411,-0.748767,0.606528,0.776203,0.31364
1515648631,1.230095,-1.560274,-0.619793,1.494446,0.667952,1.461491
1515648632,1.002256,-1.335383,-0.416918,2.376721,0.652706,2.462207
1515648632,0.837142,-1.11172,-0.233003,2.770277,0.71761,3.077912
1515648632,0.82685,-0.867722,-0.210211,2.719327,0.938882,3.567709
1515648632,0.955145,-0.578253,-0.311677,2.413865,1.240042,3.864394
1515648632,1.113147,-0.233534,-0.462711,2.041959,1.408101,4.072357
1515648632,1.171545,0.014162,-0.58166,1.709213,1.31677,4.182626
1515648632,1.16077,0.153802,-0.68157,1.549861,1.155632,4.33322
1515648632,1.070575,0.243696,-0.714588,1.740564,0.97055,4.531392
1515648632,0.923028,0.373327,-0.656006,1.890167,0.759226,4.845519
1515648632,0.856384,0.56852,-0.584986,1.797493,0.674237,4.867477
1515648632,0.835693,0.72043,-0.546465,1.642613,0.718877,4.57472
1515648632,0.692404,0.833756,-0.537424,1.568051,0.724629,4.393196
1515648632,0.580316,0.956434,-0.515954,1.39867,0.438903,4.086671
1515648632,0.556252,1.109334,-0.41804,1.02122,-0.001825,3.513861
1515648632,0.524728,1.218336,-0.300016,0.615488,-0.213488,3.190135
1515648632,0.417289,1.450804,-0.187013,0.559844,-0.096582,3.588317
1515648632,0.111401,1.772305,-0.17811,0.41321,-0.086714,4.090534
1515648632,-0.307805,2.05061,-0.005287,0.188332,-0.665915,4.042802
1515648632,-0.453098,2.351393,0.213952,-0.026325,-0.954165,2.90812
1515648632,-0.662425,2.474553,0.278312,-0.380031,-0.850487,2.183842
1515648632,-0.767494,2.581143,0.347658,-0.831967,-0.823743,1.335512
1515648632,-0.685444,2.575672,0.256109,-0.972366,-0.275364,-0.269135
1515648632,-0.530551,2.134491,0.207606,-0.35053,0.082714,-2.18741
1515648632,-0.397751,1.807907,0.206397,0.570542,0.369547,-3.172849
1515648632,-0.274635,1.611963,0.218155,0.82329,0.253317,-3.408091
1515648632,-0.179047,1.491873,0.142799,0.138372,-0.070462,-3.488069
1515648632,-0.063863,1.435721,0.047568,-1.372852,-0.784615,-3.49208
1515648632,0.107524,1.451205,-0.050291,-3.065653,-1.524682,-3.57797
1515648632,0.388433,1.471876,-0.157945,-4.206532,-1.626986,-4.025834
1515648632,0.695152,1.402031,-0.304634,-4.491456,-1.075562,-4.568844
1515648632,0.841348,1.314305,-0.362502,-4.189631,-0.155188,-4.816062
1515648632,1.019485,1.242317,-0.537005,-3.734473,0.794494,-5.2554
1515648632,1.148338,0.99215,-0.641703,-3.256108,1.635981,-6.008914
1515648632,1.500411,0.727935,-0.810428,-2.907199,1.937364,-6.559277
1515648632,1.746633,0.324485,-0.916856,-2.654682,1.536831,-6.332978
1515648632,1.805764,-0.237722,-0.988486,-2.705738,0.427017,-5.592119
1515648632,1.784029,-0.738585,-0.784849,-2.786309,-0.879809,-4.312128
1515648632,1.677764,-0.927801,-0.464727,-3.331664,-1.422523,-3.071076
1515648632,1.572136,-1.219714,-0.521573,-3.740356,-0.857128,-2.459637
1515648632,1.519538,-1.545349,-0.88772,-2.668925,0.015385,-1.919799
1515648632,1.395344,-1.612266,-0.9492,-1.413697,-0.007617,-1.151624
1515648632,1.201144,-1.709697,-0.925018,-0.839293,-0.108614,-0.664941
1515648632,1.322504,-1.640958,-1.039194,0.130437,0.446093,-0.529293
1515648632,1.474319,-1.679964,-1.219533,1.28413,0.717167,-0.117682
1515648632,1.515564,-1.584636,-1.204614,2.442764,0.67642,0.786406
1515648632,1.410617,-1.260917,-1.043957,3.161621,0.524858,1.714988
1515648632,1.171607,-1.009436,-0.732506,3.414434,0.442167,2.389728
1515648632,1.03886,-0.813307,-0.524045,3.466438,0.827181,2.907659
1515648632,0.970955,-0.588937,-0.55852,3.416758,1.394402,3.30139
1515648632,0.983276,-0.33485,-0.78011,3.507204,1.870131,3.598899
1515648633,1.017731,-0.149615,-0.889013,3.843555,1.891241,3.799825
1515648633,1.034144,-0.050331,-0.806734,3.63955,1.650965,4.137773
1515648633,1.074298,0.180767,-0.868924,2.390714,1.710229,4.475677
1515648633,1.063787,0.278567,-1.293544,0.972449,1.492838,4.698849
1515648633,1.028479,0.399206,-1.58998,0.582274,0.289502,5.176998
1515648633,0.912461,0.817255,-1.495583,0.706494,-0.870924,5.627867
1515648633,0.699777,1.216618,-1.418946,0.916379,-1.396797,5.511959
1515648633,0.354183,1.315093,-1.323242,1.581226,-1.796101,4.950739
1515648633,0.170128,1.38072,-1.050619,2.725083,-1.786241,3.969743
1515648633,0.206129,1.41736,-0.854828,3.878465,-1.139938,3.072658
1515648633,0.240315,1.525087,-0.703021,4.627237,-0.657957,2.760758
1515648633,0.304693,1.529071,-0.482233,4.722899,-0.608996,2.410645
1515648633,0.293328,1.625392,-0.12548,4.570945,-0.105593,2.454388
1515648633,0.020399,1.918151,0.163955,3.99045,0.401448,3.14172
1515648633,-0.407389,2.377761,0.236794,2.588533,0.053258,2.951599
1515648633,-0.721347,2.572629,0.376074,1.403044,-0.660227,1.294402
1515648633,-1.05929,2.68297,0.737542,2.162852,-0.294803,0.008691
1515648633,-0.993143,2.967191,0.424986,3.59452,0.953456,-1.059917
1515648633,-0.481955,2.932779,0.242385,3.594641,1.099622,-2.959889
1515648633,-0.301612,2.347713,0.077241,2.432706,0.736998,-4.1451
1515648633,-0.219374,2.112934,0.001136,0.548899,-0.269479,-4.112467
1515648633,0.154187,1.999608,-0.160616,-0.914361,-0.795722,-4.157887
1515648633,0.349206,1.797149,-0.319779,-1.689051,-0.66884,-4.445269
1515648633,0.708468,1.682614,-0.644149,-2.321515,-0.355308,-4.871615
1515648633,1.030413,1.481031,-0.699328,-2.672545,-0.459354,-5.098152
1515648633,1.209629,1.301359,-0.715574,-2.39526,-0.0941,-4.868913
1515648633,1.408223,1.093447,-0.980701,-2.431304,0.142492,-4.938481
1515648633,1.660192,0.888252,-1.150781,-2.979297,-0.614588,-5.053794
1515648633,1.572344,0.491336,-1.137481,-2.929551,-1.519851,-4.843177
1515648633,1.326205,0.090851,-0.928658,-2.327466,-1.824121,-4.505429
1515648633,1.213914,-0.227608,-0.786347,-1.637048,-1.638411,-4.430668
1515648633,1.116531,-0.588982,-0.764424,-1.326818,-1.477466,-4.34076
1515648633,1.050351,-0.779055,-0.690121,-1.077279,-1.563857,-3.836523
1515648633,0.972745,-0.928254,-0.604235,-0.747551,-1.635481,-3.392629
1515648633,0.859666,-1.069437,-0.514763,-0.566289,-1.709129,-2.867426
1515648633,0.736131,-0.999468,-0.386325,-0.435612,-1.614827,-2.277561
1515648633,0.770145,-0.931496,-0.552083,-0.217255,-1.112511,-2.009266
1515648633,0.784865,-0.943963,-0.63257,-0.037972,-1.234569,-1.687575
1515648633,0.715098,-0.91032,-0.583172,-0.375649,-1.824418,-1.002751
1515648633,0.668669,-0.8698,-0.399833,-0.940341,-2.337994,-0.66327
1515648633,0.705331,-0.815303,-0.354782,-1.177113,-2.124652,-0.631523
1515648633,0.799306,-0.796141,-0.407839,-1.055068,-1.84939,-0.609739
1515648633,0.914658,-0.877829,-0.359854,-0.691933,-1.85543,-0.617511
1515648633,1.00254,-1.035633,-0.185511,-0.289574,-1.804023,-0.605939
1515648633,1.040333,-1.19581,-0.117595,0.185876,-1.387127,-0.221228
1515648633,0.959369,-1.296291,-0.200737,0.732586,-1.04437,0.561334
1515648633,0.864337,-1.099934,-0.12007,0.88521,-1.447131,1.494659
1515648633,0.744449,-0.792562,0.079276,0.375694,-1.95631,1.866375
1515648633,0.856474,-0.625974,0.02789,-0.174124,-1.984795,1.75602
1515648633,0.948809,-0.43245,0.200899,-0.366752,-2.64585,1.670141
1515648634,1.014047,-0.248987,0.611201,-0.429471,-3.136384,1.738266
1515648634,0.914061,-0.456022,0.920373,-0.183581,-1.859052,1.897633
1515648634,0.900714,-0.368073,0.501313,0.428127,0.953924,2.608955
1515648634,0.951247,-0.169213,-0.090531,1.170013,2.79187,3.258557
1515648634,0.966184,-0.018353,-0.52103,1.702882,3.015108,3.505124
1515648634,0.982149,0.041128,-0.563851,1.942398,2.684178,3.572549
1515648634,0.947182,0.083182,-0.641149,1.706801,2.485645,4.027532
1515648634,0.814923,0.273622,-0.741783,1.424228,2.032932,4.734951
1515648634,0.743433,0.573027,-0.799845,1.423762,1.550184,4.900347
1515648634,0.658795,0.752407,-0.726855,1.683659,1.200546,4.389287
1515648634,0.581953,0.87023,-0.638549,2.06703,1.572369,3.94348
1515648634,0.506045,0.934018,-0.705724,2.527425,2.39952,3.725865
1515648634,0.505299,1.09781,-0.738776,3.096295,3.078739,3.371406
1515648634,0.578766,1.187121,-0.802615,3.681589,3.656351,2.772015
1515648634,0.405939,1.349413,-1.030633,3.734418,3.863605,2.806267
1515648634,-0.186865,1.401901,-1.179688,2.459954,2.7356,3.54954
1515648634,-0.630922,1.828958,-1.088681,1.048604,0.775392,3.430504
1515648634,-1.017309,2.082345,-0.705419,0.684239,-0.579042,2.037732
1515648634,-1.285431,1.970499,-0.37613,1.475937,-0.423285,0.24188
1515648634,-1.286831,1.908139,-0.221563,3.055853,0.434353,-0.801286
1515648634,-1.155785,1.915041,-0.289947,3.640428,0.996911,-1.459291
1515648634,-0.906692,1.705305,-0.463014,2.89461,0.738322,-2.442151
1515648634,-0.630506,1.403692,-0.571528,1.712994,-0.021006,-3.097677
1515648634,-0.362163,1.182221,-0.643829,0.77052,-0.669422,-3.326901
1515648634,-0.121635,1.071129,-0.730588,0.433498,-1.059602,-3.347581
1515648634,0.09391,0.951103,-0.778954,0.428877,-1.303061,-3.427401
1515648634,0.274586,0.847902,-0.787941,0.527822,-1.552927,-3.554641
1515648634,0.350166,0.663373,-0.709794,0.458842,-2.079626,-3.502513
1515648634,0.400062,0.528259,-0.551186,0.190368,-2.584028,-3.387459
1515648634,0.487824,0.375433,-0.402881,-0.05394,-2.765032,-3.457852
1515648634,0.630157,0.202878,-0.285804,-0.019363,-2.689337,-3.373537
1515648634,0.697059,0.032451,-0.134035,0.05196,-2.436575,-3.04512
1515648634,0.68574,-0.214745,-0.030775,0.013254,-2.253776,-2.64048
1515648634,0.833452,-0.355073,0.142372,-0.166661,-2.232186,-2.464512
1515648634,1.054738,-0.395939,0.299619,-0.453458,-1.988122,-2.441558
1515648634,1.194414,-0.623788,0.362812,-0.683774,-1.916507,-2.212591
1515648634,1.381494,-0.845634,0.55481,-0.528411,-2.116375,-1.976226
1515648634,1.434915,-0.939344,0.764818,-0.374324,-1.824095,-1.603717
1515648634,1.477411,-0.946965,0.814042,-0.340454,-1.022456,-1.337548
1515648634,1.539907,-0.993716,0.689574,0.109636,-0.088233,-1.263308
1515648634,1.615469,-1.082453,0.555293,0.873419,0.68786,-0.902898
1515648634,1.519387,-1.149636,0.458982,1.373924,1.251579,-0.086586
1515648634,1.16908,-1.1769,0.378774,1.355008,1.447452,1.132218
1515648634,0.866227,-1.023919,0.326818,1.019972,1.591958,1.970135
1515648634,0.719873,-0.756665,0.204354,0.825765,1.892445,2.36114
1515648634,0.649641,-0.547605,0.106786,1.035298,2.243634,2.525054
1515648634,0.626148,-0.41675,-0.024528,1.553182,2.653162,2.566861
1515648634,0.64054,-0.287989,-0.102575,1.863785,2.979521,2.563998
1515648634,0.684732,-0.187543,-0.199284,1.722375,3.309401,2.470418
1515648634,0.873652,-0.073541,-0.430893,1.439359,3.581819,2.385751
1515648635,0.883894,-0.032903,-0.572448,1.050324,3.573709,2.641677
1515648635,0.787564,0.073294,-0.772002,0.191588,2.916116,3.220567
1515648635,0.667282,0.173862,-0.827565,-0.697364,2.084064,3.715218
1515648635,0.592673,0.274411,-0.870193,-0.694249,1.578327,4.003191
1515648635,0.547849,0.353639,-0.851452,-0.15913,1.194826,4.14991
1515648635,0.39977,0.462985,-0.724105,-0.068719,0.722587,4.248624
1515648635,0.291257,0.586509,-0.576852,-0.377999,0.214581,4.238802
1515648635,0.219068,0.753233,-0.477129,-0.497232,-0.002092,4.273481
1515648635,-0.027443,1.357361,-0.328481,-0.436709,0.090406,4.286523
1515648635,-0.19568,1.615889,-0.312804,-0.276924,0.140316,3.524357
1515648635,-0.355341,1.588083,-0.228668,0.274494,0.374799,2.207821
1515648635,-0.500705,1.624909,-0.229528,1.143448,0.847374,1.551295
1515648635,-0.708905,1.854634,-0.266416,1.44762,0.969934,1.59112
1515648635,-0.895953,2.024491,-0.304567,0.742359,0.584566,1.170082
1515648635,-0.862643,2.056127,-0.381047,-0.314493,0.149983,-0.316121
1515648635,-0.639472,1.840607,-0.444773,-0.725345,-0.06251,-1.972898
1515648635,-0.442114,1.572358,-0.525942,-0.108783,0.000035,-2.921391
1515648635,-0.360641,1.277583,-0.475222,0.987045,-0.13384,-3.300503
1515648635,-0.266212,1.127208,-0.381133,1.536913,-0.342654,-3.342404
1515648635,-0.091556,1.093522,-0.3862,1.23775,-0.541472,-3.313969
1515648635,0.102358,1.076809,-0.462449,0.319178,-0.983079,-3.292779
1515648635,0.209997,0.945769,-0.513041,-0.65065,-1.634822,-3.207791
1515648635,0.354537,0.897939,-0.516446,-1.175027,-1.99917,-3.054662
1515648635,0.540255,0.931645,-0.54069,-1.351007,-1.927006,-3.016151
1515648635,0.636389,0.898567,-0.578253,-1.375833,-1.85417,-3.155905
1515648635,0.677738,0.758893,-0.563482,-1.407137,-1.970795,-3.431983
1515648635,0.714232,0.561823,-0.510112,-1.352394,-2.049016,-3.679944
1515648635,0.747416,0.375538,-0.434942,-1.190983,-2.024774,-3.794231
1515648635,0.813668,0.22397,-0.366947,-1.160639,-2.045196,-3.883581
1515648635,0.898655,0.075732,-0.31111,-1.27618,-2.141113,-3.956567
1515648635,1.026632,-0.063762,-0.289244,-1.543477,-2.276167,-3.92587
1515648635,1.115252,-0.218493,-0.255908,-1.933536,-2.43397,-3.650693
1515648635,1.112561,-0.316129,-0.21201,-2.27126,-2.388502,-3.253882
1515648635,1.151888,-0.413311,-0.251158,-2.244468,-2.045649,-2.973678
1515648635,1.295499,-0.575938,-0.32579,-2.03481,-1.878174,-2.800089
1515648635,1.342987,-0.907614,-0.231332,-2.136883,-2.100156,-2.415823
1515648635,1.350938,-1.333394,-0.080391,-2.033562,-1.985887,-1.886847
1515648635,1.484091,-1.718688,0.048602,-1.027125,-1.197823,-1.509249
1515648635,1.581566,-2.054971,0.263845,0.341647,-0.581543,-1.157469
1515648635,1.419956,-2.259115,0.476797,0.955603,-0.209542,0.146472
1515648635,1.201326,-2.000628,0.521957,0.513258,-0.010469,1.86078
1515648635,1.071149,-1.602381,0.464363,-0.619207,-0.136363,3.102951
1515648635,1.064963,-1.288417,0.322192,-1.710502,-0.284929,3.855182
1515648635,1.142436,-1.006274,0.125827,-2.487667,-0.491582,4.613275
1515648635,1.332573,-0.610567,-0.115557,-3.097667,-0.873222,5.402124
1515648635,1.517108,-0.153701,-0.360528,-3.401746,-1.593404,5.821861
1515648635,1.610936,0.081343,-0.50328,-2.885375,-2.528071,5.992199
1515648635,1.706246,0.281387,-0.385432,-1.344021,-3.11284,5.983155
1515648635,1.669647,0.575841,-0.113318,0.470003,-2.845502,5.994228
1515648635,1.500496,0.758642,0.018744,1.855445,-1.991286,5.997534
1515648636,1.31965,0.875279,0.064718,2.515522,-1.473635,5.920667
1515648636,1.133296,0.962739,0.271127,2.528727,-1.37088,5.827976
1515648636,0.896077,1.042315,0.439921,2.148255,-0.980437,5.820549
1515648636,0.719942,1.171331,0.430118,1.603055,-0.475162,5.554383
1515648636,0.525893,1.278622,0.392914,1.066106,-0.442178,5.045528
1515648636,0.309615,1.421214,0.510216,0.726984,-0.671065,4.621987
1515648636,0.065022,1.636128,0.691785,0.682796,-0.710208,3.980319
1515648636,-0.227311,1.657107,0.849709,0.859802,-0.174207,3.100782
1515648636,-0.439232,1.479706,0.80106,0.818131,1.060769,1.98325
1515648636,-0.438907,1.434734,0.504769,0.443774,1.727255,1.234088
1515648636,-0.362312,1.458579,0.345951,0.199739,1.627792,0.731036
1515648636,-0.204044,1.517786,0.387611,0.444614,1.739954,0.158931
1515648636,0.126026,1.763013,0.27358,0.284467,2.512195,-0.457084
1515648636,0.1254,1.77003,-0.087571,-1.110234,2.504883,-0.665452
1515648636,0.045873,1.686628,-0.369755,-2.88382,1.357047,-0.703588
1515648636,0.258129,1.868802,-0.410068,-3.704815,0.325939,-1.439231
1515648636,0.43019,1.91134,-0.258892,-3.60068,0.079223,-2.285708
1515648636,0.477414,1.816066,-0.170031,-3.360513,0.441582,-3.0082
1515648636,0.50219,1.653581,-0.193733,-2.977036,0.905148,-3.673553
1515648636,0.630619,1.492806,-0.190613,-2.317104,1.144649,-4.418397
1515648636,0.729785,1.274623,-0.170809,-2.108685,1.261155,-4.946998
1515648636,0.792945,1.012763,-0.109018,-2.537182,1.345342,-5.066393
1515648636,0.854368,0.834922,-0.140136,-3.050362,1.749303,-4.772937
1515648636,0.816096,0.696678,-0.331706,-4.013419,2.189205,-4.390105
1515648636,0.803355,0.518548,-0.580362,-5.469369,2.689074,-4.034281
1515648636,1.136654,0.47027,-0.974277,-6.674893,3.199693,-3.71664
1515648636,1.337074,0.599092,-1.423117,-7.880695,2.911146,-3.209991
1515648636,1.19468,0.622752,-1.906729,-9.457486,1.812436,-3.22372
1515648636,1.050492,0.606466,-2.404763,-9.782476,-0.087477,-3.777441
1515648636,0.841699,0.518048,-2.298486,-8.273622,-1.687902,-3.882039
1515648636,0.688821,0.56235,-1.922062,-6.163439,-1.610862,-3.678647
