
timestamp,accel x,accel y,accel z,gyro x,gyro y,gyro z
1515648189111,0,0,0,0,0,0
1515648189211,-3.3547363,0.33021545,4.2544403,0.29338074,1.619339,-0.10618591
1515648189314,-6.666397,-0.39720154,8.872589,-3.1690216,0.03718567,-0.9827881
1515648189415,-7.5756836,-5.9318085,2.7876434,0.9622803,2.6846924,-2.5545654
1515648189517,-11.839691,-3.7662964,7.039688,0.5597229,1.7036438,-3.3199768
1515648189621,-10.925629,-0.124420166,1.7060852,0.4754181,0.4104309,-2.2863922
1515648189722,-10.107285,-0.624527,1.8879395,-0.7133179,-0.055664062,-0.86917114
1515648189824,-14.462219,-2.7517395,2.835495,-0.796402,0.2625885,0.17417908
1515648189926,-12.602997,-0.73220825,3.9385834,-0.5630493,0.014587402,1.4386902
1515648190029,-10.408783,-2.4598236,1.3447723,1.0013733,-0.6311035,2.408142
1515648190133,-11.430511,-5.34317,2.148758,1.3306427,-0.14117432,3.12529
1515648190235,-8.015961,-4.3980103,1.146164,0.5707245,-0.6109314,2.715393
1515648190337,-4.78804,-2.7804565,-0.830307,0.9628906,-0.17416382,0.7936096
1515648190445,-8.013565,-3.522232,-0.39482117,0.10585022,0.5704651,-1.436676
1515648190548,-13.974091,-3.8548431,2.0865479,-1.8367157,0.3139038,-3.7243805
1515648190650,-12.440292,-2.371292,3.053238,-1.0028687,0.70547485,-2.5820618
1515648190753,-10.841873,-2.1224365,2.7397766,0.50657654,0.0011444092,-1.4372864
1515648190856,-8.159531,-1.7706909,1.4931183,0.67333984,0.30718994,-1.1794891
1515648190957,-9.466003,-2.3114624,1.2466583,-0.4616394,-0.036117554,-0.88627625
1515648191059,-14.833115,-3.0675964,2.0219421,-0.7682953,0.2589264,-0.216156
1515648191161,-11.75116,-0.48095703,2.6895294,-1.6308441,-0.7380066,1.219986
1515648191264,-11.23909,-5.7786713,1.2897339,1.6592865,-0.19615173,3.4142456
1515648191366,-9.219543,-5.3575287,1.8640137,0.42105103,-0.1350708,2.026947
1515648191469,-7.869995,-3.1274261,0.65563965,0.08018494,-0.5077057,2.1650085
1515648191572,-7.032501,-1.1772614,0.21774292,-0.1659851,-0.43196106,0.45640564
1515648191674,-10.102493,-3.1250305,2.0937195,-0.11161804,0.1312561,-0.4947052
1515648191775,-10.566711,-0.91645813,1.385437,0.21092224,0.3297882,-2.1086273
1515648191879,-12.145966,-1.0337067,2.383255,-0.8660431,0.646225,-1.6333618
1515648191982,-8.958725,0.1268158,0.8039856,-0.7957916,-0.3824768,-0.77937317
1515648192085,-8.015961,-1.3830566,1.8305054,0.0044555664,0.5521393,-0.34199524
1515648192187,-10.87059,-3.505478,1.0791626,0.7643585,0.6999817,-0.50631714
1515648192288,-12.212967,-5.8624115,2.8546448,-0.44638062,0.23754883,-0.5869446
1515648192390,-7.4153595,-2.3018951,3.402588,-0.044418335,-1.0086212,-2.001114
1515648192491,-8.484955,-2.428711,-0.8829498,1.380722,-0.4484558,-0.034729004
1515648192593,-8.224136,-3.9433746,2.3784637,-0.5997009,-0.4844818,0.1625824
1515648192694,-7.3986053,-1.146164,0.279953,0.038650513,-0.377594,0.29086304
1515648192797,-10.092926,-3.5677032,1.2442627,0.088134766,0.06590271,0.25909424
1515648192901,-15.481567,-4.749756,2.7876434,-0.6314697,0.5191498,0.5645294
1515648193005,-11.069199,-0.6628113,1.976471,0.57987976,-0.30549622,1.3879852
1515648193107,-9.875183,-5.0775757,3.3020935,1.2567139,0.74090576,2.1912842
1515648193209,-6.455841,-4.2951202,2.1990051,1.0606232,-0.20899963,1.3256683
1515648193319,-4.819153,-2.945572,0.5814514,0.9189148,0.3163452,0.62072754
1515648193421,-7.554138,-6.3385925,1.414154,-0.4237671,0.18806458,-0.79953
1515648193523,-11.160126,-8.415558,3.5533447,-3.252716,-1.8992767,-2.950409
1515648193625,-10.320251,-2.120041,5.1182404,-1.3131866,-0.30549622,-2.434845
1515648193731,-9.908676,-4.627716,3.225525,0.33796692,0.11231995,-1.4195709
1515648193837,-8.683548,-2.1248322,2.7541351,-0.4439392,-0.87727356,-0.9907379
1515648193941,-9.980469,-0.95951843,2.4669952,-0.073135376,-0.5156555,0.12225342
1515648194043,-12.026321,-3.4695892,2.2827454,-1.408493,-0.6298828,0.98480225
1515648194147,-13.576874,-2.4191437,4.9579315,0.5707245,0.8117676,0.69158936
1515648194251,-10.679169,-3.871582,2.794815,1.9402924,0.48251343,1.9921417
1515648194356,-9.324829,-5.6614227,4.019943,1.6757812,0.84536743,2.0006866
1515648194458,-7.0085754,-4.1491547,2.9623108,0.8627167,0.11721802,1.7447357
1515648194560,-5.2737885,-5.481964,2.5220337,0.8639374,-0.08743286,1.1619568
1515648194662,-9.245865,-7.0468597,1.4189453,0.03437805,0.5771942,-0.85694885
1515648194763,-9.84407,-6.4941254,4.268799,-0.19836426,0.45196533,-2.1348877
1515648194865,-9.896713,-1.6055908,1.2394867,0.25856018,-0.5162506,-1.9907379
1515648194967,-9.47319,-3.912262,1.450058,-0.472641,-0.5101471,-1.331604
1515648195076,-10.533203,-1.9381866,0.17706299,-1.225235,-0.60849,-1.7714233
1515648195178,-13.028915,-1.2921295,0.3517456,-0.8904877,-0.3519287,-0.9919586
1515648195279,-15.790237,-2.7350006,0.6508484,-0.5007477,0.034744263,0.17051697
1515648195381,-11.944977,-0.7800598,0.5479584,0.25611877,0.2625885,2.2829132
1515648195485,-11.109879,-4.718643,2.847458,1.2994843,1.2961884,2.4820557
1515648195591,-9.879959,-4.3094788,1.9046936,0.4161682,0.5075531,2.4221802
1515648195693,-6.960724,-4.6588287,2.7828522,0.3110962,0.043899536,1.7636719
1515648195795,-8.508881,-6.0921326,0.92123413,0.84194946,0.259552,0.45518494
1515648195897,-8.709869,-6.295517,1.1222382,-0.5984802,-0.48937988,-1.2546387
1515648195999,-9.099899,-0.5001068,0.107681274,0.5175781,-0.6549225,-1.412857
1515648196100,-9.016159,-3.6849518,-0.3397827,-0.2301178,-0.43623352,-1.3248901
1515648196204,-10.164719,-2.8833466,0.85902405,-1.457367,-1.118576,-1.8832245
1515648196305,-10.420746,-1.1485596,2.038681,-0.6119232,-0.2682495,-1.681015
1515648196408,-14.947968,-2.0291138,0.59103394,-0.5923767,0.08604431,-0.7091217
1515648196510,-15.019745,1.5314026,2.9981995,-0.4921875,-0.20593262,0.5370331
1515648196612,-9.224335,-1.9477539,1.071991,0.966568,0.23022461,2.050171
1515648196717,-11.097916,-3.7328033,1.7778625,1.0905762,0.8960724,1.9322662
1515648196818,-8.647659,-3.677765,0.7010956,0.50901794,0.5558014,2.4392853
1515648196922,-8.403595,-5.5704956,1.6869354,0.54444885,0.4721222,1.4105835
1515648197029,-10.363312,-5.642273,1.4644012,-0.16171265,-0.040405273,-0.43362427
1515648197130,-6.654434,-2.7637177,1.552948,-1.7463074,-0.99823,-1.555191
1515648197232,-9.549759,-2.5244293,0.46180725,0.9964905,0.3872223,-2.368866
1515648197333,-9.791428,-2.995819,0.79441833,0.7778015,-0.4460144,-1.123291
1515648197437,-9.078369,-2.8737793,1.146164,-0.4280548,-2.0318298,-1.1239014
1515648197540,-11.909073,-2.663208,0.026321411,-1.4188843,-0.8430786,-1.0683289
1515648197645,-15.302109,-0.5096741,2.6273193,-1.432312,-0.044662476,-1.0683289
1515648197748,-13.823334,-0.009567261,2.3808594,1.6134644,0.5857544,0.65859985
1515648197850,-10.272385,-4.027115,4.4195404,0.31782532,0.7005768,2.2633667
1515648197952,-10.057037,-4.2424774,3.0675964,0.7154999,0.41897583,2.6885223
1515648198054,-7.7359924,-6.525223,3.3188477,0.32453918,-0.100250244,2.2804718
1515648198156,-8.137985,-6.4821625,2.1750793,0.030715942,-0.16744995,0.63539124
1515648198258,-7.470398,-6.3385925,1.6821594,-0.08352661,-0.1350708,-0.90338135
1515648198361,-6.9056854,-3.357132,-0.17706299,-0.05908203,-0.45150757,-1.1336823
1515648198464,-7.544571,-4.6013947,0.9786682,-0.62841797,-0.3164978,-2.1868286
1515648198565,-12.155533,-2.5124664,3.0245209,-0.7646332,0.12576294,-2.4000092
1515648198667,-13.220352,-1.6630096,1.6630096,-1.69133,-0.9402008,-1.2387543
1515648198768,-18.013168,-3.809372,2.325821,-0.46958923,0.5112152,-0.5215912
1515648198870,-12.294327,0.92123413,1.7706909,0.25550842,-0.6017761,2.757553
1515648198971,-8.831909,-5.6446686,1.4189453,1.2255707,0.582077,2.3378906
1515648199072,-9.451645,-3.3020935,2.8139648,0.7252655,0.6401062,1.6989136
1515648199174,-7.491928,-4.051056,2.8450623,0.65379333,0.25160217,1.5584106
1515648199279,-8.147568,-6.455841,1.8472595,0.40638733,0.07444763,0.8870697
1515648199388,-9.320038,-6.5898285,1.0337067,-0.31871033,-0.39164734,-1.3542023
1515648199489,-8.549561,-1.8424683,1.8640137,-0.21730042,-0.009246826,-1.6077118
1515648199592,-8.724228,-4.43869,2.0913239,0.27749634,-0.12652588,-1.6187134
1515648199694,-9.485153,-2.8043823,1.1437683,0.71855164,-0.17478943,-1.9559021
1515648199798,-11.50708,-1.0624084,0.20817566,-0.2136383,-0.7996979,-1.3462524
1515648199902,-12.890137,-3.6681976,0.77526855,-2.4139862,-1.2413483,-0.282135
1515648200006,-15.57489,2.5962067,-0.4283142,2.1883087,1.7415161,-0.4947052
1515648200107,-10.368103,-3.8739777,2.3282166,-0.07496643,0.17095947,2.1973877
1515648200209,-10.329819,-4.508072,2.6656036,1.8260498,1.5710754,2.1350708
1515648200318,-8.453842,-4.697113,3.328415,-0.045639038,0.3762207,2.3329926
1515648200419,-7.6833496,-4.7234344,1.9429779,-0.09022522,-0.3458252,1.7202911
1515648200521,-9.3511505,-6.924835,1.7515411,-0.49768066,-0.30245972,0.23344421
1515648200623,-6.5443726,-3.6011963,1.6654053,-1.1482697,-0.71784973,-2.0237274
1515648200724,-9.298508,-3.6059875,0.8231354,0.19563293,-0.009857178,-1.8984833
1515648200827,-10.54277,-3.7184448,1.4859467,-0.15376282,-0.20715332,-2.445221
1515648200928,-11.040482,-1.2322998,1.3950195,-0.25395203,-0.3653717,-1.9956207
1515648201031,-12.882965,-1.8472595,0.3014984,-1.3046417,-0.6359863,-0.77693176
1515648201138,-15.14418,-2.4622192,1.5409851,-1.1140594,-0.32322693,-0.004196167
1515648201240,-12.421143,-0.24885559,1.6845398,0.73931885,0.34628296,2.1509552
1515648201342,-12.514465,-5.3288116,2.2779694,1.5914764,1.181961,2.5584106
1515648201447,-10.671997,-4.6779633,1.8687897,-0.11895752,-0.0849762,2.910263
1515648201550,-7.0947266,-5.4963074,1.9932251,0.19319153,-0.3360443,2.373932
1515648201653,-7.2311096,-6.242874,2.0937195,0.81933594,0.36766052,0.87301636
1515648201756,-8.961121,-8.197815,1.5768738,0.079574585,0.06712341,-1.1513977
1515648201859,-9.131012,-1.832901,0.9188385,-0.06945801,-0.5168762,-2.6009827
1515648201961,-12.071793,-3.3044891,-0.19142151,0.7515259,0.08970642,-1.7488251
1515648202063,-10.25325,-3.6969147,1.6103668,-1.4268188,-0.9512024,-2.326706
1515648202165,-13.617554,-0.5814514,3.2566376,-2.6974335,-1.2108154,-1.9693451
1515648202266,-13.079163,-1.5337982,1.0049896,-0.7145386,-0.26885986,-0.4983673
1515648202372,-14.804398,1.4859467,3.677765,0.17242432,0.040237427,0.6506653
1515648202477,-10.279572,-4.503296,2.3042908,1.717926,0.28520203,2.2602997
1515648202579,-10.195816,-3.7710876,1.557724,2.2548828,1.0622253,1.8669128
1515648202681,-8.149948,-5.637497,3.0221405,-0.08778381,-0.1375122,2.218155
1515648202785,-8.020737,-5.448456,1.9477539,0.4277649,0.010299683,1.2291565
1515648202888,-8.126022,-7.755142,1.6510468,0.0032348633,-0.096588135,-0.24485779
1515648202991,-9.456436,-1.6295166,2.395218,-0.19163513,-0.43989563,-2.2650146
1515648203093,-7.5062866,-3.4695892,1.1174469,-0.12199402,0.01763916,-1.2124786
1515648203195,-8.453842,-4.7617188,2.0697937,-0.95217896,-0.8656769,-1.9705658
1515648203297,-11.6698,-3.419342,2.892929,-0.4873047,-0.049560547,-2.2253113
1515648203399,-14.89772,-2.2660065,1.9214325,-1.5398254,-0.9597473,-0.8227539
1515648203501,-13.373489,-0.5623169,2.6656036,-0.0077667236,-7.63E-05,0.109436035
1515648203605,-11.617157,-2.0530396,2.6392822,0.7570343,0.7653351,1.8693542
1515648203707,-12.500107,-4.965103,3.9625092,0.73197937,0.75434875,2.615219
1515648203810,-10.987839,-4.0701904,1.7946167,-0.01876831,-0.79359436,3.4563904
1515648203912,-6.417557,-5.6351013,0.6699829,-0.46592712,-1.3262634,2.7190704
1515648204015,-7.372284,-6.8602295,2.9479523,0.21885681,0.41775513,0.012298584
1515648204117,-6.604187,-4.8478546,2.622528,0.3013153,0.80322266,-2.2045288
1515648204219,-8.513657,-2.2468567,0.17945862,0.9690094,0.58451843,-2.197815
1515648204320,-10.2341,-4.5272217,2.5651093,0.45526123,0.046951294,-2.4012299
1515648204422,-11.241486,-2.2420807,0.17706299,-0.75364685,-0.50953674,-2.2344666
1515648204528,-13.792236,-1.2251282,0.8614197,-1.0034943,-1.0874176,-1.8086853
1515648204630,-16.862228,-1.1940155,1.9740753,-0.36634827,0.2607727,-0.5325775
1515648204733,-12.251251,0.3517456,0.9667053,0.24511719,0.14286804,1.9347076
1515648204835,-12.928421,-5.1469574,2.766098,1.0203094,1.1978455,2.6915894
1515648204937,-11.083557,-4.244873,4.0582275,-0.18431091,-0.22976685,2.705017
1515648205039,-7.3411865,-6.484543,3.1944122,0.978775,0.27297974,2.5070953
1515648205146,-7.1856537,-7.063614,2.5052795,0.782074,0.026794434,1.0782776
1515648205248,-7.5469666,-7.269394,1.0217285,-0.2753296,-0.04649353,-1.412857
1515648205351,-8.374878,-3.4384918,2.273178,-0.010818481,-0.71417236,-2.2918854
1515648205453,-11.133804,-4.2759705,1.2969055,0.88897705,0.10559082,-2.4592743
1515648205555,-10.892136,-3.0723877,0.83509827,-0.23074341,-0.9469147,-2.1153412
1515648205663,-12.1866455,-0.9260254,-0.17468262,0.019119263,-0.6414795,-1.5331879
1515648205765,-15.096313,-2.4765778,0.55992126,-0.88375854,-0.21325684,-0.2650299
1515648205866,-14.1176605,1.2681885,2.457428,0.6171417,0.5521393,0.9090576
1515648205968,-12.086151,-5.345566,2.268402,0.10707092,0.5961304,2.8650665
1515648206070,-10.470993,-5.1230316,3.6418762,0.4680786,0.7848816,2.1906738
1515648206173,-7.8747864,-4.0989075,2.8498535,0.2151947,0.10865784,2.2010498
1515648206275,-7.578064,-6.0801697,2.1176453,0.5267334,0.21434021,1.5193176
1515648206378,-8.532806,-7.458435,1.2610168,0.24084473,0.056732178,-0.7653351
1515648206482,-8.109283,-2.5244293,2.8594208,-0.28755188,-0.3617096,-2.6077118
1515648206585,-8.851059,-3.3619232,-0.110076904,0.6379242,0.018859863,-1.5478516
1515648206686,-9.580856,-3.6897278,0.6269226,-0.6235199,-0.8253479,-1.9962311
1515648206788,-11.148163,-1.8544312,0.47616577,-0.43782043,-0.35437012,-1.6895752
1515648206889,-14.029114,-1.9214325,-0.7513428,-1.1452026,-0.5382538,-0.50509644
1515648206991,-14.900101,0.114852905,3.2518463,-0.29792786,0.0060272217,-0.08604431
1515648207093,-10.91127,-3.247055,0.8231354,0.48214722,0.36216736,2.4124146
1515648207196,-11.511871,-3.7495575,3.1704865,0.8504944,0.7928314,2.2224274
1515648207299,-8.736191,-4.8885345,2.7110748,0.13150024,0.16241455,2.6311035
1515648207401,-6.747757,-5.1924286,2.4933167,0.32148743,-0.03489685,1.4515076
1515648207503,-8.8367,-7.051651,2.0410767,0.03315735,0.16668701,-0.23143005
1515648207606,-7.767105,-4.216156,3.115448,-1.0395203,-0.2480774,-2.1324463
1515648207708,-8.901306,-2.7708893,0.122039795,0.35263062,-0.2010498,-1.7793732
1515648207811,-9.810577,-3.0843506,1.138977,-0.94117737,-0.6537018,-1.7268372
1515648207912,-10.743774,-2.079361,2.222931,-1.5184479,-0.72517395,-1.4537811
1515648208015,-13.272995,-1.1557312,0.17945862,-0.13728333,-0.37332153,-0.7537079
1515648208120,-16.532013,-1.9621124,0.78723145,0.3501892,0.64805603,-0.3291626
1515648208222,-10.468597,-0.8542328,2.3066864,0.1822052,0.24304199,2.4973297
1515648208324,-10.389633,-3.9194489,1.9908295,0.6348572,0.48127747,2.1900482
1515648208426,-8.415558,-3.6059875,2.0123596,0.6910553,0.48861694,2.0342865
1515648208528,-7.2669983,-3.620346,1.8257294,0.3123169,0.23754883,1.4466248
1515648208629,-8.432312,-5.9365997,2.0027924,-0.108551025,0.010910034,0.3953247
1515648208732,-9.600006,-6.0801697,1.7970123,-0.7689209,-0.1521759,-1.3670349
1515648208834,-8.769699,-2.1607208,1.7802582,0.06491089,-0.674469,-1.4293365
1515648208937,-8.676376,-4.2424774,1.2131653,0.19015503,-0.350708,-1.9565277
1515648209040,-11.028519,-2.0267181,1.0480499,-0.0077667236,-0.37147522,-2.2808838
1515648209142,-13.095917,-0.9690857,-0.06939697,-0.6394043,-0.6983032,-1.0188293
1515648209247,-13.402206,-3.2662048,0.7992096,-1.3309174,-0.71173096,-0.32183838
1515648209349,-13.201202,1.5026855,1.9381866,0.039260864,0.24304199,0.7545166
1515648209458,-11.617157,-3.6825562,1.5553284,0.6983948,0.51426697,2.245636
1515648209560,-10.794022,-3.7088776,2.9766693,-1.0205994,-0.27801514,2.457611
1515648209662,-8.128418,-3.883545,3.4432678,0.4320526,-0.45516968,2.325058
1515648209764,-8.807983,-6.2596283,1.8664093,0.61958313,-0.54985046,1.55719
1515648209865,-8.614166,-7.2311096,0.9643097,1.29216,0.5191498,-0.50753784
1515648209968,-7.085144,-1.2370911,0.35653687,0.9830475,0.348114,-1.670639
1515648210071,-9.308075,-3.3403778,0.3900299,-1.3260345,-0.7050171,-2.447052
1515648210174,-12.47139,-1.1270142,1.7754669,-1.2099609,-0.5834503,-2.3016663
1515648210278,-11.657837,-0.29193115,1.7539368,-0.20629883,-0.3458252,-1.4427795
1515648210379,-12.978668,-2.1391907,1.0815582,-0.5398407,-0.2181549,-0.9449158
1515648210481,-18.049057,2.8330994,3.8524475,0.19137573,0.35177612,-0.12269592
1515648210583,-9.992432,-2.297104,1.1772614,0.52490234,0.09643555,2.5107574
1515648210687,-10.68634,-4.886139,2.8378906,1.380722,1.061615,2.1271362
1515648210791,-9.63829,-4.0366974,2.6081696,0.94029236,0.61994934,2.2602997
1515648210895,-7.6498566,-5.07518,3.3666992,0.3306427,-0.08375549,1.7636719
1515648210997,-7.944168,-7.0875397,1.9094696,0.32637024,-0.24868774,0.19923401
1515648211099,-7.482361,-3.9194489,2.9240265,-0.7224884,-0.53886414,-2.0909119
1515648211201,-8.702698,-2.6967163,-0.20817566,0.42227173,-0.19311523,-1.902771
1515648211311,-10.210175,-5.070389,2.4311066,-0.65956116,-0.506485,-2.6223755
1515648211413,-12.729813,-1.7778625,2.4263153,1.1321106,0.5863495,-2.6541443
1515648211515,-12.971497,-2.1966095,-0.8183441,-0.5819855,-0.6329346,-0.69384766
1515648211617,-15.917053,-2.2085724,0.39720154,-1.7279816,-0.080703735,0.22549438
1515648211719,-11.229523,-2.2827454,2.6943207,-0.65711975,-0.72395325,2.5535126
1515648211820,-10.188644,-6.027527,2.8857422,1.0422974,0.605896,2.3904114
1515648211922,-8.764908,-4.3836517,2.371292,1.5505524,0.7268524,2.01474
1515648212025,-7.2669983,-5.070389,2.3042908,0.41311646,0.19416809,1.5932312
1515648212128,-9.171692,-6.989441,1.655838,-0.13728333,0.07078552,0.5156555
1515648212230,-6.4917297,-7.274185,3.7782745,-1.2038574,-0.54008484,-1.555191
1515648212333,-9.135803,-2.4263153,-0.8063812,0.8474426,-0.2480774,-1.7066803
1515648212435,-9.322433,-4.4530487,1.9836426,-0.073135376,-0.466156,-2.1294098
1515648212536,-10.95195,-2.0434723,1.0863342,-0.0028839111,-0.2676239,-1.8410797
1515648212639,-12.174683,-1.5074768,0.99780273,-0.62841797,-0.7703705,-1.1123047
1515648212740,-13.244278,-2.2157593,0.19142151,-1.1458282,-0.51319885,-0.04144287
1515648212842,-14.378479,0.83270264,0.727417,-0.06335449,0.5112152,1.065445
1515648212948,-10.308273,-4.5726776,4.0055847,0.37280273,0.60040283,2.530304
1515648213050,-9.786652,-3.3116608,2.802002,1.5175629,1.0200806,1.7123566
1515648213152,-7.195221,-4.0989075,2.725418,0.705719,0.15690613,1.9615936
1515648213254,-8.98027,-6.829117,1.2801666,0.15409851,0.075668335,1.2456512
1515648213355,-8.382065,-7.4153595,2.1439667,-1.1189423,-0.51197815,-0.6492615
1515648213457,-8.195419,-4.9124603,2.0937195,-2.1885834,-1.3641357,-2.3273163
1515648213563,-8.439484,-3.4743805,1.832901,-0.277771,0.5857544,-1.6749115
1515648213665,-9.631119,-2.835495,3.2063751,-0.9075775,-0.24014282,-1.5380859
1515648213767,-11.554947,-2.2205353,1.1437683,-1.0737305,-0.6665344,-1.1135254
1515648213870,-13.619949,-2.0769653,1.9716797,-0.8819275,0.08666992,-0.6230011
1515648213971,-16.666016,0.8183441,2.9599152,1.9573822,1.55336,0.06666565
1515648214073,-10.9040985,-4.4075775,2.7708893,0.83461,0.67614746,2.7025757
1515648214175,-9.016159,-4.5296173,2.8115692,0.6067505,0.8740845,2.079483
1515648214277,-8.260025,-3.7998047,3.2949219,0.63668823,0.4116516,2.0067902
1515648214380,-9.47319,-7.027725,1.8640137,0.29826355,-0.1839447,1.8406372
1515648214486,-7.5684967,-9.762711,2.2564392,-1.4549255,-0.33544922,-1.2766266
1515648214588,-9.939789,-0.45224,-1.8544312,1.22435,-0.09048462,-2.3389282
1515648214690,-9.702896,-5.07518,0.63648987,-0.99432373,-0.9499817,-2.2045288
1515648214792,-9.4253235,-2.1248322,1.976471,-0.6265869,-0.25602722,-1.6144409
1515648214893,-11.172089,-1.5673065,0.75852966,-0.5832062,-0.69340515,-1.1562805
1515648214995,-13.234695,-4.4147644,2.0003967,-1.9918823,-0.7318878,-0.7335663
1515648215097,-17.395828,1.1102753,3.7662964,0.950058,1.6223907,-0.11230469
1515648215201,-11.40419,-3.0269165,1.3256226,0.4955902,0.8997345,2.6109467
1515648215303,-10.186249,-5.3072815,2.7876434,1.495575,0.905838,2.3904114
1515648215404,-7.7647095,-4.5631104,2.1032867,0.82850647,0.4220276,2.3439941
1515648215506,-7.903488,-5.9724884,1.4859467,0.5933075,0.46601868,1.3342285
1515648215608,-8.516052,-5.7667084,1.9525452,-0.2295227,0.1129303,0.31163025
1515648215709,-7.6331024,-4.7019043,2.0003967,-1.7469177,-0.88705444,-1.5044708
1515648215811,-8.977875,-3.8022003,1.2203369,-0.5422821,-0.5639038,-2.1434479
1515648215912,-10.415955,-3.3379822,2.0697937,0.11439514,-0.29328918,-2.5515137
1515648216014,-12.734604,-0.4737854,0.01675415,0.6043091,-0.7465515,-1.7017822
1515648216117,-12.763321,-1.6247253,-1.2275238,-0.78785706,-0.7911377,-0.9485779
1515648216222,-16.88855,0.102890015,1.7539368,-0.22523499,0.66516113,-0.3242798
1515648216327,-11.129013,-3.6179504,1.1246338,0.41189575,0.4965515,2.6598206
1515648216429,-10.597809,-5.2570343,2.634491,0.9286957,1.0658875,2.2835236
1515648216530,-9.339188,-4.302292,3.2039948,0.32514954,0.57902527,2.4551697
1515648216633,-8.3485565,-6.0107727,2.9694977,0.3000946,-0.008026123,2.0971985
1515648216735,-7.956131,-7.9178467,1.7132568,-0.23867798,-0.35621643,0.19923401
1515648216839,-7.3339996,-3.7208405,1.7491608,-0.72065735,-0.52053833,-2.4366608
1515648216942,-9.360718,-3.1274261,-0.68434143,0.42410278,-0.21510315,-1.5899963
1515648217045,-9.674179,-4.197006,1.4380798,-0.9613342,-0.8852234,-2.4293365
1515648217148,-12.1866455,-1.6917267,2.141571,-0.7554779,-0.5040436,-2.0786896
1515648217259,-13.555344,-2.4885406,0.61016846,-0.40238953,-0.6103363,-0.6370392
1515648217362,-15.402603,-2.170288,0.22732544,-0.48364258,0.6975403,-0.98402405
1515648217463,-10.719849,-1.2897339,-0.050247192,0.5206299,0.48739624,2.3965302
1515648217565,-11.564514,-5.8336945,2.7062836,0.6415863,0.90522766,2.8833923
1515648217667,-9.841675,-5.144562,2.622528,-0.043807983,0.2137146,2.7276154
1515648217770,-6.57547,-5.345566,2.7517395,0.34103394,-0.069107056,2.1014862
1515648217877,-8.647659,-6.61615,0.80877686,0.0844574,-0.08192444,0.8149872
1515648217980,-6.2931213,-8.059021,1.5146637,-1.9020691,-0.6659241,-1.343216
1515648218083,-9.958923,-2.7182465,-1.7276154,0.7264862,0.43180847,-3.0426483
1515648218186,-11.511871,-4.4602203,3.5748749,-0.009597778,0.15814209,-2.7017822
1515648218292,-11.614761,-1.071991,-0.04067993,-0.17330933,-0.52542114,-1.4244537
1515648218395,-10.712662,-2.388031,0.35653687,-1.2832642,-0.85772705,-0.7457886
1515648218498,-15.797409,-2.9001007,1.4237366,-0.2460022,0.46907043,-0.56373596
1515648218600,-13.507492,0.100494385,2.945572,0.4161682,0.34017944,2.351944
1515648218703,-11.504684,-5.5298157,2.222931,1.0062714,0.48617554,2.8076477
1515648218807,-8.941986,-4.7019043,2.7110748,0.953125,0.29986572,2.4032593
1515648218911,-7.1928253,-5.0608215,2.5339966,0.8291168,0.15568542,1.9603729
1515648219015,-8.2456665,-7.039688,1.4787598,0.88165283,0.22532654,0.8430939
1515648219117,-8.171494,-5.8097687,0.44984436,-0.6552887,-0.05444336,-1.5680084
1515648219218,-8.920441,-2.9144592,1.5050812,-0.63879395,-0.5077057,-2.101303
1515648219321,-10.662415,-3.5485535,1.0576324,-0.6131439,-0.25602722,-2.2228699
1515648219423,-10.93042,-1.696518,1.7132568,-0.8440552,-0.6182709,-2.0279999
1515648219527,-11.380264,-2.2947235,1.4333038,-0.9344635,-0.7074585,-1.1159668
1515648219631,-15.311676,-1.0193481,-0.447464,-0.35902405,0.256485,-0.65719604
1515648219733,-14.483749,0.16270447,2.0769653,0.33125305,0.54603577,2.586502
1515648219837,-12.485748,-4.548752,1.7898254,0.3648529,0.31695557,2.9493713
1515648219939,-9.791428,-4.4267273,1.3639069,0.963501,0.14042664,2.648819
1515648220040,-6.3026886,-4.153946,1.385437,0.38012695,0.34384155,1.9854126
1515648220146,-7.6402893,-5.4723816,1.2586212,0.2658844,0.2662506,0.5914154
1515648220248,-10.4566345,-6.0586243,-0.050247192,0.12232971,0.2662506,-1.0273895
1515648220350,-10.729416,-1.7036896,2.1463623,-0.6882782,-0.34092712,-3.021881
1515648220452,-10.770096,-2.170288,0.44267273,0.13150024,-0.19248962,-1.8135681
1515648220554,-9.647858,-1.5625153,0.23449707,-0.6980591,-0.6964569,-1.8764954
1515648220657,-10.78685,-1.3615112,1.4189453,-0.9136963,-0.59628296,-1.4843292
1515648220758,-14.555542,-0.9954071,0.91645813,-0.80189514,-0.6628723,-0.9406433
1515648220860,-13.741974,-0.9834442,0.83270264,0.18891907,-0.19004822,0.15953064
1515648220963,-9.506683,-3.637085,2.0865479,0.35507202,0.46051025,1.821701
1515648221065,-10.985443,-2.555542,2.3090668,0.8120117,1.0426788,1.7752838
1515648221170,-9.891922,-4.3453674,3.0388794,0.21946716,0.18074036,2.510147
1515648221272,-8.267197,-6.238083,1.7706909,0.26039124,-0.15461731,1.8644562
1515648221374,-8.3437805,-5.848053,2.3449707,-0.12384033,-0.07765198,0.14730835
1515648221476,-7.602005,-4.141983,2.4047852,0.3514099,-0.53764343,-1.2937317
1515648221578,-8.678772,-3.9338074,-0.1603241,0.8052826,-0.48937988,-2.243637
1515648221684,-10.80838,-2.2301178,0.39720154,0.55789185,-0.40263367,-2.4830933
1515648221786,-12.425934,-1.6630096,0.29910278,0.5291748,-0.36109924,-1.7476044
1515648221887,-12.906891,-1.3447723,-2.2636108,0.040481567,-0.35925293,-0.8056488
1515648221988,-14.428726,-2.1320038,-0.35653687,-1.3254089,-0.21876526,-0.05671692
1515648222090,-12.0095825,0.9571228,1.8855438,-0.35780334,0.41348267,1.4985504
1515648222191,-11.021347,-5.046463,2.486145,1.0307007,0.75679016,2.1362915
1515648222293,-10.52124,-3.6275177,2.8307037,0.23535156,0.5521393,2.0275574
1515648222396,-7.7862396,-3.7447662,2.8187408,0.0099487305,-0.17782593,2.347046
1515648222499,-7.905884,-6.8027954,1.529007,0.099731445,-0.30549622,1.27742
1515648222602,-8.5902405,-7.290924,1.2681885,-0.5581665,0.036575317,-1.331604
1515648222706,-9.150162,-2.8785706,3.4552307,-0.88864136,-0.38308716,-2.5087433
1515648222807,-12.157928,-3.7112732,1.450058,0.8810425,0.43119812,-2.213089
1515648222909,-10.444672,-1.3208313,1.5170441,-0.15864563,-1.0006714,-1.887497
1515648223011,-10.322632,-1.1844482,0.24406433,-0.3779602,-0.47410583,-0.94369507
1515648223121,-14.352158,-2.732605,0.39720154,-1.4158325,-0.40812683,-0.16911316
1515648223226,-13.782654,1.4045868,2.3018951,-0.18553162,0.20639038,0.87789917
1515648223334,-10.99263,-4.78804,1.9046936,0.5487213,-0.11735535,2.715393
1515648223438,-9.365509,-4.4865417,2.9599152,0.8034668,0.35177612,1.8870697
1515648223540,-6.994217,-4.163513,2.1391907,0.863327,0.2131195,1.6677551
1515648223642,-8.17627,-5.0560303,1.5840454,0.3672943,0.18074036,0.7447357
1515648223745,-9.384644,-6.8841553,0.69392395,-0.4970703,-0.0012969971,-0.68652344
1515648223848,-8.157135,-2.6273193,2.244461,-0.9002533,-0.40507507,-1.8887177
1515648223950,-9.059235,-3.3260193,0.19621277,0.35079956,0.10070801,-1.4000244
1515648224052,-8.762512,-2.5459595,1.4117584,-0.6082611,-0.5357971,-1.6205444
1515648224159,-10.84906,-2.4765778,1.0337067,-0.33396912,-0.20593262,-1.4543915
1515648224262,-12.86142,-1.6701965,1.2203369,-1.5844269,-0.816803,-0.53686523
1515648224364,-15.495926,-2.0602264,0.79681396,0.24572754,0.5179291,0.37088013
1515648224467,-9.710068,-1.8185425,1.1844482,0.2988739,0.28276062,2.1222534
1515648224569,-10.069,-4.450653,1.8831482,1.0099335,0.89668274,1.8528595
1515648224675,-8.908478,-3.5700989,3.156128,0.5059662,0.34506226,1.9689178
1515648224777,-8.4227295,-4.989029,2.5770721,0.4002838,-0.031845093,1.7117462
1515648224878,-9.2482605,-6.649658,0.5623169,0.21580505,-0.08987427,0.67692566
1515648224979,-6.776474,-4.6372833,2.0315094,-1.1134491,-0.5431366,-1.5631256
1515648225081,-9.008972,-2.897705,-0.45942688,0.21273804,0.019470215,-1.6633148
1515648225183,-9.815353,-3.2733765,1.4620209,-0.67300415,-0.39224243,-2.2595215
1515648225287,-11.129013,-1.6031952,1.6055908,-0.2496643,-0.09841919,-1.9504242
1515648225389,-12.148361,-0.72262573,0.6053772,-0.7316437,-0.6078949,-0.7329407
1515648225492,-15.591629,-2.9335938,1.0791626,-0.6107025,-0.24075317,-0.12207031
1515648225599,-10.861023,-0.6388855,0.74417114,0.2952118,0.15080261,1.6524963
1515648225701,-10.4231415,-4.0390778,2.0171509,0.7790222,0.6120148,1.8155975
1515648225802,-9.94696,-3.397812,2.280365,0.83399963,0.62361145,1.848587
1515648225911,-7.491928,-3.8141632,2.8833466,0.6018677,0.09094238,1.8534698
1515648226013,-8.757736,-7.001404,1.7132568,0.38806152,0.10437012,1.1717377
1515648226116,-10.33699,-5.8097687,-0.40438843,0.22190857,0.010299683,-0.80625916
1515648226219,-8.255234,-1.5673065,1.6917267,-0.5893097,-0.6830292,-1.6150513
1515648226322,-9.3511505,-3.625122,1.1222382,-0.13238525,-0.15890503,-1.6235962
1515648226427,-9.434906,-2.0195465,1.031311,-0.088409424,-0.40141296,-1.7848663
1515648226531,-10.392029,-1.2753754,0.72502136,-0.80862427,-0.69218445,-1.2069855
1515648226636,-13.665405,-1.696518,0.8829498,-0.96684265,-0.4618988,-0.36886597
1515648226737,-15.629913,-0.7346039,2.1152496,-0.393219,0.2479248,0.391037
1515648226840,-10.389633,-0.7896271,1.2562256,-0.2753296,-0.008026123,2.258484
1515648226943,-10.473389,-4.5176544,2.6799622,-0.72554016,-0.5639038,1.8748474
1515648227047,-7.951355,-3.5868378,2.038681,1.5358887,0.37071228,1.702591
1515648227149,-6.57547,-4.6013947,1.4883423,1.2616119,0.2644348,1.2609253
1515648227251,-9.262619,-6.5324097,1.409378,0.33003235,0.32429504,-0.66819763
1515648227354,-8.6979065,-3.397812,1.9980011,-0.5563202,-0.19555664,-1.8997192
1515648227456,-9.322433,-2.7900238,0.6029968,0.1015625,-0.3824768,-1.5020294
1515648227560,-8.743378,-3.1680908,0.91645813,-0.0041046143,-0.493042,-1.6956787
1515648227663,-10.511673,-1.409378,-0.095718384,0.11805725,-0.19737244,-1.7524872
1515648227766,-12.993027,-0.55274963,-0.727417,-1.0230408,-0.6848602,-0.73905945
1515648227868,-15.218353,-3.5581207,0.55992126,-0.6381836,0.22044373,-0.30900574
1515648227970,-11.71286,1.6103668,0.9882355,1.2048035,1.0622253,1.4337921
1515648228072,-11.868393,-4.6707916,2.1224365,1.6910553,1.62117,2.447235
1515648228175,-11.148163,-3.5413818,2.4047852,-0.07374573,0.74823,2.3085632
1515648228277,-8.494522,-5.2043915,3.1585236,-0.6088562,-0.19737244,2.4985504
1515648228379,-6.7214355,-5.93898,2.0865479,-0.15498352,-0.5687866,1.3360596
1515648228482,-7.377075,-7.0085754,0.095718384,-0.15742493,-0.32138062,-0.7042389
1515648228586,-9.556931,-3.270996,2.4598236,-0.67729187,-0.3006134,-3.096405
1515648228688,-10.229324,-3.7830505,0.3637085,-0.30160522,-0.19004822,-1.9577484
1515648228789,-12.96431,-1.2299042,3.0293121,-1.3565674,-0.9811249,-2.6180878
1515648228891,-10.58345,-0.6029968,1.964508,0.026443481,-0.4008026,-0.7848816
1515648228998,-11.918655,-1.0145569,-0.5120697,-0.62046814,-0.2786255,-0.19171143
1515648229103,-15.517456,-2.0362854,2.4047852,-0.73898315,0.3743744,0.4484558
1515648229205,-10.78685,-2.9766693,3.3475647,0.7949066,0.30718994,2.23526
1515648229306,-10.442276,-4.1324005,2.5770721,1.4088287,1.0255737,1.924942
1515648229407,-9.152542,-4.3621216,2.8881378,0.9738922,0.6608887,2.01474
1515648229509,-7.6163483,-4.99382,2.7852478,0.1968689,-0.116744995,1.6683807
1515648229611,-8.312668,-6.9272156,1.8065796,0.19747925,-0.27801514,0.4105835
1515648229712,-8.501694,-6.5563354,0.43788147,-0.5538788,-0.19189453,-1.5582275
1515648229817,-8.463409,-1.763504,0.8566284,0.25489807,-0.21998596,-2.1422272
1515648229919,-10.2508545,-4.7569275,0.33499146,-0.59420776,-0.24868774,-1.9137573
1515648230021,-10.710281,-1.6151581,1.7611237,-0.6516266,-0.35377502,-2.1055756
1515648230123,-11.035706,-0.24406433,0.5431671,-0.69621277,-0.6634674,-0.7042389
1515648230225,-13.335205,-2.7182465,0.5623169,-0.9582825,-0.43501282,-0.08665466
1515648230327,-14.880966,-1.5314026,2.2420807,0.25489807,0.21983337,0.4081421
1515648230440,-9.7986145,-3.826126,2.6033936,0.6654053,-0.17356873,2.133255
1515648230543,-9.805786,-4.266403,1.8831482,1.6189728,0.88812256,1.6213379
1515648230645,-9.011368,-3.1082764,1.5553284,0.74053955,0.54481506,1.7697754
1515648230747,-7.0827484,-3.8883362,1.7874451,0.36424255,0.056732178,1.3757629
1515648230855,-8.583054,-4.9100647,0.78723145,0.3416443,0.14103699,-0.14102173
1515648230958,-8.456238,-7.2263184,2.904892,-0.5545044,-0.17845154,-1.236908
1515648231063,-8.042282,-4.199402,0.050247192,-1.2069092,-0.72273254,-1.5838928
1515648231165,-10.004395,-4.197006,2.100891,-0.98394775,-0.25297546,-2.5295258
1515648231270,-10.999802,-1.3471527,2.153534,-0.2802124,-0.16194153,-1.8838348
1515648231377,-11.73201,-0.69392395,0.5886383,-0.5661011,-0.6976776,-0.9907379
1515648231479,-14.565109,-2.3186493,0.98106384,-0.5532837,-0.22425842,-0.07992554
1515648231580,-14.328217,0.76330566,3.1202393,1.1669312,0.6065216,0.6463928
1515648231686,-11.162521,-4.256836,2.2779694,0.52001953,0.04084778,2.6903534
1515648231788,-11.449661,-4.606186,2.6823578,1.251831,1.0530701,1.8833923
1515648231890,-8.099701,-4.532013,3.2853394,0.41860962,0.3261261,2.2480774
1515648231993,-8.178665,-3.0771637,-0.04547119,0.887146,0.80625916,1.6305084
1515648232094,-8.398804,-4.400406,2.7493591,-0.5606079,-0.3665924,0.767334
1515648232196,-7.7240295,-7.3962097,0.95474243,-0.95706177,-0.7380066,-0.5814514
1515648232298,-7.728821,-3.426529,1.8544312,-0.8067932,-0.6659241,-2.2912903
1515648232399,-10.255646,-5.2953186,1.409378,0.024002075,0.095214844,-2.0194397
1515648232501,-11.889938,-3.9673004,1.689331,-1.1171112,-0.3983612,-3.072586
1515648232603,-14.589035,0.2416687,2.8905334,0.34225464,-0.23220825,-2.425064
1515648232705,-13.440491,-1.3304138,0.18185425,-0.30282593,-0.4447937,-0.10070801
1515648232808,-14.737396,0.55992126,2.4622192,-0.03036499,0.2265625,1.0703278
1515648232911,-12.79921,-4.5272217,1.3950195,0.33370972,0.7146454,3.1766052
1515648233013,-10.710281,-5.5082703,3.3068848,0.23046875,0.48983765,2.3977509
1515648233115,-8.851059,-4.64447,2.732605,0.7387085,0.5356598,2.1546173
1515648233217,-6.2691956,-4.5296173,1.931015,0.6379242,0.123931885,1.4154663
1515648233320,-7.992035,-6.221344,0.8279114,0.3013153,0.23815918,-0.07443237
1515648233429,-7.8723907,-5.67099,2.4095764,-1.6436768,-0.6170502,-1.9876709
1515648233531,-10.918457,-1.1700897,0.45463562,0.2994995,-0.34399414,-2.304718
1515648233634,-10.064209,-4.862213,3.1609192,-0.85321045,-0.7074585,-2.2479095
1515648233737,-11.901901,-0.92362976,0.8685913,0.03315735,-0.08680725,-2.0658722
1515648233839,-11.866013,0.055038452,0.5431671,-0.92407227,-0.8925476,-0.71951294
1515648233941,-14.548355,-1.8640137,0.92362976,-0.5685425,-0.2993927,0.11187744
1515648234043,-13.339981,-0.2368927,2.005188,0.28971863,0.05305481,1.180893
1515648234145,-10.825134,-4.737793,1.7084808,0.9683838,0.5515442,2.3433838
1515648234248,-10.777267,-4.23291,3.4408722,0.6220398,0.5515442,2.0196228
1515648234351,-7.831711,-4.5511475,3.041275,0.5187988,-0.029403687,2.0587158
1515648234454,-6.51326,-4.3453674,1.6031952,0.8993683,0.039627075,1.2810822
1515648234558,-8.633301,-6.6400757,0.8374939,0.17182922,0.108047485,-0.4146881
1515648234663,-8.709869,-4.220932,2.0721893,-0.98516846,-0.15705872,-2.4073486
1515648234766,-9.949356,-1.8879395,-0.052642822,-4.43E-04,-0.16867065,-1.6113739
1515648234868,-9.640686,-2.8330994,1.2538452,-0.5361786,-0.3482666,-1.850235
1515648234970,-10.222137,-1.9788666,1.7658997,-0.84954834,-0.4179077,-1.5716705
1515648235071,-11.746368,-1.1844482,1.1724854,-0.66567993,-0.6237793,-0.8673401
1515648235173,-15.215958,-3.103485,1.2705841,-0.15010071,-0.030014038,-0.2802887
1515648235275,-11.490341,2.321045,1.1988068,1.458313,0.06100464,1.0000763
1515648235378,-10.15036,-6.4989014,0.73698425,1.3715668,0.8924103,2.0874329
1515648235484,-10.674377,-2.8187408,3.0939178,0.41983032,0.9229431,1.7184601
1515648235587,-8.003998,-4.015152,3.282959,0.19441223,0.119659424,1.9560852
1515648235691,-8.944366,-6.2165527,1.8951111,0.5487213,-0.064208984,1.4820557
1515648235794,-9.281754,-8.133209,0.88534546,-0.52944946,-0.10758972,-0.36825562
1515648235897,-7.556534,-2.120041,2.4095764,-0.8147278,-0.49855042,-2.0738068
1515648235999,-8.855835,-3.4049835,0.105285645,0.22312927,0.123931885,-1.626648
1515648236103,-9.841675,-2.6273193,1.3280182,-1.0273132,-0.56573486,-1.9870758
1515648236206,-10.590637,-1.5266266,2.2660065,-0.9173584,-0.70318604,-1.4464417
1515648236308,-13.775482,-2.4502563,0.5742798,-0.86909485,-0.67630005,-0.4910431
1515648236410,-16.287949,-1.3399811,1.4883423,0.52368164,0.63827515,-0.33467102
1515648236512,-10.207779,-2.5052795,1.7539368,0.34713745,0.259552,2.6665344
1515648236615,-9.406189,-4.97229,1.7036896,0.9445801,1.0322876,1.6207275
1515648236717,-9.200409,-3.7016907,2.6990967,0.54444885,0.91867065,1.496109
1515648236819,-7.951355,-4.520035,3.2925262,0.11317444,-0.037963867,1.5529175
1515648236921,-8.27916,-5.9772644,1.421341,0.30743408,-0.17845154,0.4625244
1515648237024,-7.4249268,-6.0466614,0.057434082,-0.9515686,-0.5211487,-1.1917114
1515648237126,-9.049652,-2.5842438,0.29431152,0.16326904,-0.3189392,-1.7555542
1515648237228,-9.253052,-3.1680908,1.306488,-0.78356934,-0.49487305,-1.7787628
1515648237330,-9.992432,-2.5579224,1.5194397,-0.3584137,-0.24197388,-1.7775421
1515648237432,-12.234497,-0.5431671,0.39959717,0.4827423,-0.04284668,-1.1965942
1515648237536,-13.95015,-3.259018,0.2368927,-0.964386,-0.2859497,-0.09336853
1515648237640,-11.143372,0.17945862,1.6103668,-0.18980408,0.032913208,0.5523071
1515648237741,-11.535797,-3.316452,2.4933167,1.3856201,1.0952148,1.4020386
1515648237843,-10.600204,-3.661026,3.180069,0.332489,0.30108643,2.2780304
1515648237946,-8.992233,-4.6707916,2.868988,0.5175781,0.1947937,2.408142
1515648238047,-8.451447,-5.8217316,1.7658997,0.25306702,-0.18455505,1.6317291
1515648238152,-8.216949,-7.2550354,0.45942688,0.22068787,0.030471802,-0.123916626
1515648238256,-7.4727783,-4.503296,3.144165,-0.8599396,-0.23770142,-2.12146
1515648238359,-9.482758,-2.9981995,-0.75852966,0.4320526,-0.169281,-1.4776001
1515648238463,-9.355942,-4.1850433,2.5100708,-1.0712891,-0.4832611,-2.172165
1515648238566,-12.062225,0.41156006,2.210968,0.24328613,-0.5382538,-1.6657562
1515648238669,-13.25145,-0.279953,1.4452667,-1.7072144,-1.2804565,-0.13980103
1515648238773,-14.71347,-3.6562347,2.4598236,-0.5496063,0.021911621,0.09965515
1515648238876,-10.715057,-0.5790558,3.419342,1.4412079,0.5148926,1.2823029
1515648238977,-11.267807,-4.0343018,2.4311066,1.460144,1.1807404,1.9230957
1515648239079,-10.116852,-4.1778717,3.2638092,0.27749634,0.018249512,2.1216278
1515648239180,-6.726227,-4.9172516,1.9381866,-0.12384033,-0.664093,1.977478
1515648239282,-7.628311,-6.2285156,1.7156525,0.63974,0.1923523,0.72824097
1515648239385,-9.363113,-7.853241,1.4763641,-0.2637329,0.0640564,-0.68652344
1515648239493,-8.082962,-2.8666077,2.4311066,0.17486572,-0.21510315,-1.7683716
1515648239596,-9.207581,-4.7234344,1.0193481,-0.2618866,0.05795288,-1.8557281
1515648239698,-10.585846,-3.562912,2.5292206,-1.1500854,-0.51319885,-2.1593323
1515648239799,-11.97847,-1.3710938,1.689331,-0.14826965,-0.39286804,-1.6156616
1515648239901,-13.502701,-2.847458,0.6149597,-0.7750244,-0.41851807,-0.6327667
1515648240004,-14.873779,-0.4283142,1.3758698,0.3196411,0.7305298,-0.30595398
1515648240106,-11.035706,-2.148758,2.1128693,0.6611328,0.7354126,2.3672028
1515648240208,-12.583847,-5.30011,2.2899323,0.27200317,0.9766998,2.7129517
1515648240311,-10.2508545,-4.833496,2.9024963,0.17549133,0.22227478,2.6512604
1515648240414,-6.7860413,-5.30011,2.9934235,0.5841522,-0.021453857,2.103302
1515648240519,-7.520645,-6.496521,1.2107697,0.81689453,0.0023651123,0.8174286
1515648240621,-7.4608154,-8.212173,1.0624084,-1.0004272,-0.07215881,-1.2888489
1515648240724,-9.320038,-2.1870422,2.141571,-0.3229828,-0.39653015,-2.6840668
1515648240827,-10.846664,-5.2737885,1.4380798,-0.4280548,0.15629578,-2.3297577
1515648240930,-12.026321,-1.9286194,1.9262238,-1.2234039,-0.5602417,-2.474533
1515648241032,-12.313461,-1.1102753,2.0769653,-0.4555359,-0.57551575,-1.2772369
1515648241134,-12.818344,-1.7970123,0.8566284,-0.6039734,-0.5553589,-0.4574585
1515648241237,-15.072388,-0.42114258,1.9381866,0.22801208,-0.045288086,0.66104126
1515648241339,-11.846863,-3.7040863,1.9884338,1.0881348,0.32002258,2.445404
1515648241441,-10.652847,-5.4604187,1.976471,1.6702728,1.0664978,2.427063
1515648241545,-8.860626,-4.543976,2.4789581,0.5529938,0.55947876,2.0837555
1515648241647,-7.310074,-4.7019043,2.399994,0.4570923,0.361557,1.5535278
1515648241749,-8.535202,-6.580261,1.6749725,0.075912476,0.06100464,0.16990662
1515648241850,-8.654846,-6.202194,1.4931183,-0.8513794,-0.4637146,-1.5234222
1515648241953,-9.183655,-1.8257294,0.5312042,-0.2594452,-0.6298828,-1.8838348
1515648242055,-9.233902,-4.3094788,0.7465668,-0.5667114,-0.377594,-1.865509
1515648242157,-11.327621,-2.5172424,1.1246338,-0.46470642,-0.22303772,-2.2179718
1515648242260,-11.11705,-0.38523865,0.91645813,-0.4811859,-0.6995239,-1.1575012
1515648242364,-12.055038,-3.007782,0.9188385,-0.5361786,-0.1350708,-0.3768158
1515648242466,-15.723236,-1.9908295,2.4358978,-0.05053711,0.48251343,0.27375793
1515648242568,-11.093124,-3.1776733,1.4309082,0.68434143,0.2644348,2.3629303
1515648242673,-11.229523,-4.9866486,2.342575,1.1650848,0.87101746,2.089264
1515648242775,-9.339188,-4.1491547,2.6033936,0.3282013,0.193573,2.4496765
1515648242882,-6.735794,-4.996216,2.1056824,0.4986267,-0.12652588,1.9121094
1515648242986,-7.3651123,-6.850647,0.92123413,0.27444458,-0.04222107,0.10636902
1515648243088,-8.638092,-7.1210327,1.7443695,-0.77563477,0.02557373,-2.1092377
1515648243190,-10.504486,-1.0839539,0.9451599,0.16937256,-0.17050171,-2.5008087
1515648243292,-9.982849,-4.175476,1.8257294,-1.0364838,-0.4808197,-1.7579956
1515648243398,-10.5260315,-1.8687897,2.0554352,-0.98820496,-0.6561432,-1.5667877
1515648243501,-10.516449,-1.7324066,0.66760254,-1.0022736,-0.8247528,-0.8105316
1515648243603,-13.160522,-3.4217377,-0.25842285,-1.850769,-0.36354065,-0.4476776
1515648243705,-15.543777,1.6438751,4.3836517,1.5536041,0.8954468,0.23466492
1515648243807,-11.789444,-3.603592,1.2681885,1.4723663,0.761673,2.7044067
1515648243909,-11.083557,-6.419937,2.6392822,0.8565979,0.5099945,2.555359
1515648244021,-7.8173523,-4.9172516,2.7421722,0.67211914,0.27053833,2.1619568
1515648244125,-7.6546326,-5.417343,1.8065796,0.69044495,0.2931366,1.052002
1515648244227,-8.764908,-5.4269257,1.311264,-0.19592285,-0.07398987,-0.282135
1515648244329,-7.8867493,-4.417145,1.9716797,-0.9527893,-0.34092712,-1.641922
1515648244433,-8.640488,-2.7637177,0.5790558,-0.17147827,-0.5235901,-1.7421112
1515648244538,-9.772293,-4.216156,1.0145569,-0.07801819,-0.32688904,-2.1263428
1515648244641,-11.889938,-1.6869354,0.93559265,-0.27288818,-0.4289093,-2.150772
1515648244742,-12.837494,-0.3134613,-0.25602722,-0.12017822,-0.4973297,-0.929657
1515648244845,-14.409576,-2.909668,0.20100403,-0.7292023,-0.1485138,0.13142395
1515648244947,-12.710678,1.4763641,1.8855438,0.115615845,0.056732178,1.4484558
1515648245057,-11.557327,-5.0560303,1.5433655,1.0765076,0.6132355,2.5413055
1515648245160,-9.827316,-4.546356,2.1343994,0.6452484,0.4916687,2.0294037
1515648245262,-6.6711884,-4.347763,2.9240265,0.6281433,0.23999023,1.7117462
1515648245364,-7.458435,-6.1997986,1.5457611,0.5523834,0.05368042,0.80888367
1515648245467,-10.473389,-7.807785,1.138977,-0.3907776,0.14042664,-1.0463257
1515648245570,-9.262619,-1.0576324,2.0865479,-0.66690063,-0.5871124,-2.3822937
1515648245676,-9.954147,-3.3930206,0.6699829,0.3184204,-0.07398987,-1.2766266
1515648245778,-9.686142,-2.3928223,1.1772614,-0.84161377,-0.73861694,-1.5447998
1515648245881,-9.74118,-1.0959167,0.933197,-0.39872742,-0.50587463,-0.9931793
1515648245987,-13.263412,-3.4169464,0.117248535,-0.6186371,-0.30549622,-0.3267212
1515648246089,-13.655838,-2.7756805,1.4859467,-0.12872314,0.14775085,-0.45011902
1515648246192,-9.829712,-0.9571228,2.0171509,0.6959381,0.477005,1.6830444
1515648246294,-9.990036,-5.149353,1.7922211,1.0826263,0.72502136,1.7563324
1515648246396,-9.159729,-4.256836,2.3736877,0.67211914,0.7341919,1.5706329
1515648246498,-7.022934,-3.3762665,2.7469635,0.23352051,0.056121826,1.4234161
1515648246600,-8.312668,-6.417557,1.524231,0.25611877,-0.22425842,0.85224915
1515648246708,-8.025528,-7.3292084,2.7828522,-0.5984802,-0.16194153,-1.4965363
1515648246810,-9.501892,-1.5050812,0.04067993,0.797348,-0.25907898,-1.5991669
1515648246914,-10.128815,-4.3668976,1.6821594,-0.52578735,-0.35377502,-1.3218231
1515648247016,-8.197815,-0.5001068,1.1222382,-1.004715,-0.7954254,-0.7170563
1515648247118,-9.705292,-2.6871338,-0.028717041,-0.84954834,-0.61582947,-0.3169403
1515648247220,-13.105484,-4.0175476,-0.17468262,-0.87397766,-0.07215881,-0.6724701
1515648247323,-13.691727,-1.5361938,2.354538,0.72587585,1.0811615,-0.5570221
1515648247426,-9.985245,-1.8903351,1.4069824,0.54811096,0.4757843,1.664093
1515648247528,-9.561722,-3.7854462,1.8496552,0.7704773,0.84046936,1.8748474
1515648247630,-8.365311,-4.297516,2.177475,0.25733948,0.48312378,1.9512024
1515648247732,-5.924637,-3.6921234,2.4335022,0.1663208,0.15141296,0.9347229
1515648247833,-9.71965,-4.977066,0.99302673,-0.33518982,-0.479599,-0.15568542
1515648247935,-13.117447,-2.3736877,4.2352905,-3.7243042,-2.7770844,-1.4195709
1515648248037,-6.6137695,-0.279953,2.6656036,-1.3486328,-2.2291412,-0.05671692
1515648248138,-10.19104,-2.411972,3.0867462,-0.1464386,-0.8235321,0.23649597
1515648248246,-5.9820557,-0.8638153,5.30249,0.4296112,-0.36109924,0.045898438
1515648248350,-6.9056854,-0.24885559,5.063217,-0.19102478,-0.4337921,0.1625824
1515648248452,-8.047058,-1.8496552,7.228714,-0.12321472,-0.10575867,0.3305664
1515648248553,-10.765305,-3.9888306,10.590637,0.18769836,0.37927246,-0.4134674
1515648248654,-9.221939,-3.3619232,4.2017975,-0.7432556,0.12332153,-0.3328247