
timestamp,accel x,accel y,accel z,gyro x,gyro y,gyro z
1515648123356,6.4534454,-0.61735535,5.0345,0.5096283,0.12210083,-0.39085388
1515648123456,7.276581,-1.0265198,6.4055786,-1.3522949,-0.09353638,-0.27723694
1515648123558,6.652054,-0.0047912598,5.242676,-0.05053711,-0.18089294,-0.3609314
1515648123659,6.8841553,-0.7920227,7.451248,-0.032821655,-0.7526703,-0.13858032
1515648123763,11.425735,-2.0721893,5.5752716,0.6098175,-1.2731171,0.611557
1515648123865,12.205795,-1.1868439,5.8815613,0.34347534,-0.1485138,-0.4983673
1515648123966,10.016357,-4.7521515,3.8213348,2.0710144,-0.6194916,-1.019455
1515648124067,7.1282196,-3.9338074,1.8448639,2.1461487,-1.1827087,-0.5069275
1515648124170,4.833496,-3.4863434,1.2873383,1.6073608,-1.1454468,-0.17338562
1515648124272,5.7882385,-4.840683,1.9908295,0.06491089,-0.012298584,1.3275146
1515648124378,12.665207,-7.235901,2.325821,-1.0603027,0.63217163,0.012908936
1515648124481,8.98027,-4.0366974,4.4291077,-3.186737,0.2650299,0.5358124
1515648124584,7.9489594,-1.1078796,2.1439667,-0.5056305,-0.18089294,1.0996552
1515648124686,9.013763,-1.9549408,1.799408,-0.32847595,-0.33177185,1.1955566
1515648124787,11.521439,-0.4665985,2.0171509,-0.84954834,0.16668701,0.3427887
1515648124889,11.703293,-3.036499,3.4743805,0.2151947,0.108047485,-0.38841248
1515648124991,14.821136,-2.9192505,3.5030975,0.8773804,-0.53152466,-0.9492035
1515648125093,11.913864,-5.8504486,4.0055847,1.1987,-0.40507507,-2.5906067
1515648125196,8.042282,-5.3647156,2.120041,0.9317322,0.4128723,-2.2808838
1515648125303,4.1276245,-3.7256317,0.95951843,1.4625854,-0.013519287,-1.0102844
1515648125411,7.195221,-5.139786,0.83270264,0.20846558,-0.5639038,0.8119354
1515648125516,10.837097,-7.996811,1.6845398,-1.187973,0.042678833,1.2700806
1515648125621,9.578476,-3.5437775,2.6560364,-0.7518158,0.52282715,2.471054
1515648125731,9.76033,-3.6131592,1.832901,-0.5887146,0.067718506,1.5987396
1515648125835,10.372879,-2.9120636,1.3040924,-0.6846161,0.44952393,1.55719
1515648125937,11.406586,-2.5220337,2.5866394,-1.443924,0.99624634,0.56941223
1515648126040,12.995422,-3.287735,3.5270233,-0.109176636,-0.11430359,-0.0066375732
1515648126142,14.201401,-2.5124664,3.3332062,1.4216614,-0.9334717,-1.3358765
1515648126245,10.588242,-6.0538483,3.5102692,1.6757812,-0.94447327,-2.7017822
1515648126352,9.676575,-5.5992126,1.931015,1.6091919,-0.5296936,-2.355423
1515648126455,5.350357,-4.8071747,1.3734741,0.4259491,0.3407898,-1.9907379
1515648126557,5.2163544,-7.5014954,0.9308014,-0.29670715,0.015808105,-0.09764099
1515648126658,8.494522,-7.5421753,1.1150513,0.002609253,-0.9151459,1.8192596
1515648126760,9.470795,-4.261612,0.7393799,-0.48425293,0.2118988,2.9835815
1515648126865,10.6026,-4.031906,1.0815582,-0.08534241,0.031692505,1.7746582
1515648126966,9.63829,-2.7493591,-0.16749573,-0.5819855,0.9498291,1.431961
1515648127069,11.150558,-2.892929,0.70588684,-0.5654907,0.4965515,0.93899536
1515648127173,13.880768,-4.3836517,1.4667969,-0.3242035,0.18989563,0.03062439
1515648127276,14.187042,-2.9862366,1.8185425,0.5529938,-0.37635803,-1.3206024
1515648127378,11.2534485,-6.4630127,2.3688965,0.58110046,-0.3629303,-2.9797363
1515648127481,7.7695007,-6.1017,2.4263153,0.8236084,0.11659241,-2.4360657
1515648127592,5.15654,-4.1324005,1.9166565,1.226181,-0.4771576,-1.2839508
1515648127695,6.2189484,-4.5966187,0.9786682,0.83461,-0.19371033,-0.6187134
1515648127797,7.9992065,-6.7908325,0.45703125,-0.6449127,0.095825195,0.84187317
1515648127900,8.762512,-4.7401886,2.141571,-1.8196106,0.6443939,2.6311035
1515648128004,10.071396,-4.6779633,2.1870422,-0.30465698,0.24977112,2.3513184
1515648128107,9.736389,-3.3714905,0.19621277,-0.1329956,0.26809692,1.9768524
1515648128211,11.282166,-2.9718933,1.483551,-0.14031982,0.10070801,1.4851074
1515648128313,13.466812,-4.2305145,1.138977,-0.22462463,0.15080261,0.13935852
1515648128418,12.480957,-4.3788605,2.2157593,-0.16964722,0.2265625,-1.1025238
1515648128521,11.358734,-5.539383,2.8163452,1.0985107,-0.832077,-2.1489563
1515648128624,9.860825,-5.9413757,1.2610168,1.0374146,-0.4637146,-2.7683716
1515648128726,6.496521,-5.3407745,1.1964111,0.71977234,0.00541687,-2.3480835
1515648128828,4.1730804,-5.2881317,0.18902588,-0.0022735596,0.2436676,-1.1477356
1515648128930,6.8769684,-6.628113,2.5339966,-0.1806488,-0.22669983,0.8039856
1515648129032,9.085556,-6.139984,1.7132568,-1.1048889,-0.4771576,2.55719
1515648129141,9.793823,-4.2305145,0.9954071,-0.6143646,0.70181274,2.1234741
1515648129244,10.88974,-2.7182465,0.38046265,-0.26127625,0.5234375,2.2578583
1515648129346,10.341782,-1.071991,0.8566284,-1.3309174,1.1642303,0.83758545
1515648129451,13.569702,-4.491333,1.4715881,-0.57588196,-0.31222534,0.22610474
1515648129553,18.427124,-4.302292,4.496109,0.1186676,-0.4154663,-1.3199921
1515648129658,9.9062805,-7.0660095,3.0556335,1.5896454,0.17524719,-3.447052
1515648129761,7.7455597,-6.2572327,1.6701965,2.2438965,-0.7025757,-2.3187714
1515648129862,5.0368958,-4.412369,0.050247192,1.5383453,-0.2993927,-2.250351
1515648129965,5.5369873,-5.2378845,0.9643097,-0.18614197,-0.17050171,0.23649597
1515648130067,9.76033,-8.102097,1.0887299,-0.54533386,-0.496109,1.5480347
1515648130170,12.035904,-3.7495575,-0.2871399,-1.5031738,1.200882,3.337265
1515648130273,9.57608,-4.0175476,3.6299133,-2.6149597,0.74334717,1.4484558
1515648130375,10.286743,-2.8570251,1.0552368,0.3355255,-0.25541687,1.753891
1515648130478,11.002197,-1.5768738,1.2442627,-0.6711731,0.07322693,0.98542786
1515648130582,13.746765,-4.532013,2.009964,-0.20507812,0.0811615,0.10758972
1515648130684,14.653641,-3.0628204,1.8376923,0.8052826,-0.284729,-0.92048645
1515648130785,10.114456,-5.510666,2.280365,0.66967773,0.15080261,-2.6840668
1515648130889,8.3198395,-5.481964,1.7467651,1.432663,-0.27069092,-2.06221
1515648130997,5.9078827,-4.1276245,1.1437683,1.2622223,-0.29023743,-1.5930481
1515648131100,5.395813,-4.783249,0.22970581,0.7179413,-0.11857605,-0.33833313
1515648131201,10.001999,-7.4273224,-0.009567261,-0.83917236,-0.24380493,1.1240845
1515648131303,10.128815,-3.4552307,3.3020935,-1.1946869,0.8911896,2.8907166
1515648131405,7.8915253,-3.1130676,1.7395782,-0.7395935,0.29618835,1.1582947
1515648131508,8.975479,-3.5820618,1.3734741,0.0056762695,0.33590698,1.5669708
1515648131612,9.841675,-2.9144592,0.40438843,-0.8709259,0.5839081,1.117981
1515648131715,13.686951,-3.706482,1.0695953,-0.27166748,0.095825195,0.6017914
1515648131819,15.67778,-3.665802,1.8544312,0.19075012,-0.5626831,-0.6749115
1515648131921,9.9039,-4.615753,2.761322,0.9677887,-0.55963135,-2.5692139
1515648132022,8.891724,-5.6614227,1.1724854,1.0673523,-0.5797882,-2.1947632
1515648132126,6.175873,-4.4817505,2.2205353,0.6959381,-0.3800354,-1.5447998
1515648132229,5.297714,-4.8694,0.75613403,0.68556213,-0.26091003,-0.7836609
1515648132332,9.887146,-9.18605,1.1868439,0.042312622,-0.3006134,0.84124756
1515648132434,9.1453705,-3.677765,2.457428,-0.62719727,1.0628357,2.6579742
1515648132536,8.121246,-4.08934,-0.9020996,-0.5184479,0.48251343,1.0605469
1515648132637,9.3511505,-3.5126648,0.87098694,-0.31930542,0.7134247,1.8516388
1515648132740,10.174286,-2.6201477,1.1533356,0.2164154,-0.025115967,1.4710693
1515648132846,12.79921,-5.024933,-0.62213135,1.1614227,-0.53274536,0.34033203
1515648132948,14.8498535,-5.2737885,0.43070984,-0.83976746,-0.052597046,-0.21859741
1515648133051,10.303497,-3.8476562,2.5172424,-0.2997589,0.014587402,-2.301056
1515648133152,9.375076,-6.1782684,2.100891,0.4277649,-0.5553589,-2.5032501
1515648133255,7.080368,-4.467407,1.4452667,0.22618103,0.03779602,-1.8844452
1515648133357,6.7381897,-4.610962,0.97387695,-0.03036499,0.01335144,-1.0066223
1515648133459,7.4895325,-5.89592,0.44267273,-0.16720581,0.193573,-0.2674713
1515648133561,6.805191,-5.0033875,1.9621124,-1.5599976,0.10621643,1.960968
1515648133664,9.499512,-2.9192505,-0.43070984,-0.61009216,0.229599,1.9615936
1515648133768,8.434708,-4.4291077,4.0079803,-1.1781921,-0.113082886,1.8937836
1515648133871,10.322632,-2.847458,0.68196106,0.5462799,-0.62132263,1.8559113
1515648133973,12.617355,-4.371689,1.0791626,-0.97050476,0.97120667,0.21572876
1515648134075,15.172882,-6.242874,2.622528,0.32453918,-0.4429474,-0.3462677
1515648134178,11.722443,-4.194626,1.0097656,0.79551697,-0.31834412,-2.4275055
1515648134286,9.408585,-6.2165527,2.0195465,1.1247711,-0.4783783,-2.5496674
1515648134389,6.649658,-4.914856,1.5122681,1.0960693,-0.19126892,-2.1819305
1515648134491,4.278366,-4.8670044,0.830307,0.7106018,-0.04649353,-1.1471252
1515648134593,8.059021,-7.544571,1.9812622,-0.100631714,-0.46678162,0.8675232
1515648134695,8.394028,-5.0943146,1.8257294,-0.9002533,0.1789093,2.5907898
1515648134801,9.748352,-3.373886,-0.107681274,-0.22401428,0.1324768,1.7001343
1515648134905,9.750748,-3.5557404,0.8614197,-0.84954834,0.7775574,1.7264099
1515648135008,9.6263275,-1.8233337,0.6891327,-0.3804016,0.4709015,1.2169495
1515648135109,11.282166,-3.900299,0.70588684,-0.7640228,0.4256897,0.26397705
1515648135211,17.324036,-6.489334,2.0410767,-0.16415405,-0.55596924,-0.31144714
1515648135313,11.19841,-3.8739777,1.2586212,0.34957886,0.3896637,-2.5533447
1515648135424,8.264816,-6.4366913,2.7565308,1.0740662,-0.33970642,-2.3493195
1515648135526,5.996414,-4.4817505,1.5649109,1.742981,-0.41056824,-1.4550018
1515648135628,4.874176,-4.388443,0.78723145,0.8749237,-0.2328186,-0.61016846
1515648135730,7.0707855,-6.36969,0.51924133,0.24267578,-0.055664062,0.7893219
1515648135832,10.073776,-7.5350037,0.83987427,-1.0419769,-0.1986084,1.5089417
1515648135934,9.422943,-2.9623108,1.7946167,-1.7933502,1.8563538,2.063614
1515648136038,9.315262,-4.216156,2.4622192,-0.017547607,-0.4258423,1.1894531
1515648136142,8.738586,-2.7900238,1.0695953,-1.096344,0.79771423,1.1552429
1515648136244,10.272385,-3.1298065,2.2636108,-0.4909668,0.14530945,0.6311188
1515648136346,16.290344,-5.601593,0.72262573,0.9677887,-0.87483215,-0.32000732
1515648136448,10.987839,-2.8857422,1.036087,0.12539673,-0.12591553,-1.9369812
1515648136558,9.434906,-5.99881,2.2612152,0.86027527,-0.4759369,-2.1746063
1515648136660,7.1234283,-4.2113647,1.5505524,1.4357147,-0.5419159,-1.4782104
1515648136762,6.2117615,-4.2352905,1.2179413,0.8052826,-0.36842346,-1.1532288
1515648136865,6.5443726,-6.04187,0.49291992,0.10095215,0.19906616,-0.23631287
1515648136967,8.530411,-7.5589294,0.46180725,-1.1769714,-0.012908936,1.4325714
1515648137075,10.516449,-3.809372,3.4552307,-2.3345795,1.4104156,2.3989716
1515648137178,8.338989,-3.2996979,1.1365967,-0.020599365,0.27297974,1.2181702
1515648137282,9.152542,-2.7469635,0.6388855,-0.31015015,0.2479248,1.1124878
1515648137387,11.09552,-2.6081696,0.41635132,-0.87031555,0.4073639,0.45396423
1515648137495,15.232712,-5.9078827,1.3256226,-0.31808472,-0.06237793,-0.031677246
1515648137596,11.708084,-2.9838562,2.876175,-0.2796173,0.6285095,-1.8471832
1515648137698,7.5756836,-5.83609,2.153534,1.8565979,-0.6500397,-2.331604
1515648137800,8.362915,-3.9457703,1.0049896,1.0801849,-0.8913269,-1.5735016
1515648137901,5.5657043,-4.5918274,2.3353882,0.32026672,0.1776886,-1.4782104
1515648138002,5.5704956,-5.15654,0.8183441,1.1400452,-0.016571045,-0.13491821
1515648138105,10.863419,-7.9298096,-0.71784973,0.25123596,-0.51075745,1.4423523
1515648138208,10.001999,-3.4839478,1.8879395,-0.6241455,0.45562744,2.2224274
1515648138312,9.343979,-3.098709,0.79681396,-0.14216614,0.07444763,1.5284882
1515648138416,9.4205475,-2.629715,0.59820557,-1.2032471,1.1538544,1.0966034
1515648138518,10.15036,-2.1248322,0.38763428,-0.2288971,0.36827087,0.5779724
1515648138619,12.674789,-3.7662964,-0.23449707,0.25856018,-0.18760681,0.18823242
1515648138721,14.737396,-3.3332062,2.806778,1.042923,-1.8430634,-0.4629364
1515648138824,10.736603,-5.276169,1.4787598,0.70022583,-1.1521759,-2.6425323
1515648138928,8.547165,-5.1182404,0.7417755,-0.08596802,-0.21998596,-1.9888916
1515648139031,5.3288116,-4.6133575,1.7443695,-0.6638489,0.78855896,-1.4690399
1515648139134,5.647064,-5.637497,1.6151581,0.040481567,0.12269592,-0.25891113
1515648139236,10.272385,-8.764908,-0.028717041,-0.3767395,-0.33055115,0.767334
1515648139345,8.695511,-1.9836426,-0.17945862,-1.5954132,0.9101105,2.0904846
1515648139448,9.511475,-3.603592,1.5984039,-0.08534241,-0.35865784,1.6042328
1515648139550,9.568893,-2.4382935,-0.7680969,-0.33335876,0.4116516,1.4111938
1515648139652,10.509277,-1.5385895,-0.30389404,-1.1195526,0.5826874,0.6970978
1515648139755,12.79921,-4.3836517,1.8257294,-0.7658539,0.388443,0.2902527
1515648139857,13.914261,-3.4671936,1.9597168,0.51145935,-0.17660522,-0.27418518
1515648139960,11.035706,-4.852646,1.4907227,0.7869568,-0.20715332,-2.3902435
1515648140063,8.171494,-5.4293213,1.0145569,0.94395447,0.18928528,-2.5087433
1515648140167,5.42453,-3.4241333,-0.20817566,0.71365356,-0.27435303,-1.4885864
1515648140269,6.5850525,-4.6588287,0.8685913,0.06674194,-0.18821716,-0.32855225
1515648140371,9.138184,-7.2669983,0.74417114,-0.5312805,0.072006226,0.68426514
1515648140472,8.508881,-3.8644104,2.5866394,-0.3767395,0.3774414,2.6427155
1515648140575,10.762909,-3.184845,0.5024872,0.4485321,-0.064208984,1.5547485
1515648140676,9.111862,-2.6536407,0.055038452,-0.3083191,0.63583374,1.041626
1515648140780,9.217148,-2.1296082,-0.059814453,-0.48913574,0.45562744,0.9396057
1515648140883,13.713272,-4.3453674,0.8542328,-0.12017822,-0.27130127,0.6244049
1515648140985,15.326035,-4.9914246,1.7228394,-0.4799652,0.19845581,-0.6907959
1515648141088,10.121643,-5.0105743,2.2157593,0.47480774,-0.5364227,-2.34198
1515648141191,8.188232,-5.395813,2.0985107,0.7710724,-0.25419617,-1.9467468
1515648141293,5.728424,-3.8979034,1.7132568,0.9152527,-0.33911133,-1.4409485
1515648141396,5.5010986,-4.084549,0.76330566,0.6275177,-0.2853546,-0.6333771
1515648141500,8.1427765,-6.994217,3.5150604,0.6342468,0.96632385,1.1088104
1515648141601,8.547165,-4.651642,1.454834,-0.8513794,0.41714478,2.3836975
1515648141704,9.262619,-4.199402,0.90927124,-0.8782654,0.3627777,1.8137512
1515648141806,9.800995,-4.2520447,1.7108612,-0.10366821,0.0982666,1.9267731
1515648141908,9.561722,-2.3593292,0.22970581,0.063690186,0.07444763,0.975647
1515648142011,11.430511,-4.6779633,0.928421,-0.5606079,0.33283997,-0.01701355
1515648142115,15.084351,-7.331604,1.9549408,-0.2997589,-0.31710815,-0.57595825
1515648142221,11.724838,-4.216156,1.2969055,0.4424286,-0.17967224,-2.3780212
1515648142324,9.0759735,-6.8027954,1.8759766,0.29826355,-0.044067383,-2.821518
1515648142426,5.407776,-4.5702972,1.8257294,0.6776123,0.17340088,-1.7640991
1515648142528,4.852646,-4.2759705,1.311264,0.8394928,-0.3433838,-0.6107788
1515648142632,7.030121,-6.386444,1.071991,0.1357727,-0.2835083,0.8626404
1515648142738,9.293716,-6.2189484,1.0289154,-1.0364838,0.017028809,2.4857178
1515648142841,9.49472,-2.321045,1.1126556,-0.4225464,0.67004395,1.5816345
1515648142944,9.501892,-2.6990967,-0.40438843,-0.1953125,0.36827087,1.0538483
1515648143046,8.987442,-2.4143524,1.4620209,-0.61924744,0.57780457,0.9139557
1515648143149,11.442474,-3.9553375,0.33259583,-0.27166748,0.23144531,0.28720093
1515648143251,14.301895,-5.699707,1.3447723,-0.4921875,-0.15890503,-0.17828369
1515648143358,11.540588,-3.0029907,1.7443695,0.19992065,0.3065796,-2.0713654
1515648143461,9.489929,-7.0707855,2.5579224,0.6513519,-0.25297546,-2.1526184
1515648143563,6.070587,-3.8452606,1.6247253,1.1321106,0.15019226,-1.475769
1515648143665,5.297714,-3.4983063,0.40678406,1.0368195,-0.4808197,-0.8685608
1515648143766,6.419937,-5.8695984,1.0217285,-0.423172,-0.09170532,0.416687
1515648143867,10.466202,-7.343567,0.97387695,-0.782959,-0.5675659,2.0245056
1515648143968,10.174286,-2.6057892,0.75613403,-0.47325134,0.9437103,2.053833
1515648144069,8.470596,-3.550949,0.99780273,0.19625854,-0.112472534,0.9615936
1515648144172,8.5208435,-2.5986023,0.5264282,-0.31747437,0.22288513,1.1473083
1515648144279,12.421143,-3.8165588,0.76330566,-0.18125916,0.14164734,0.52360535
1515648144380,12.765717,-5.017746,0.80877686,-0.120773315,0.08666992,-0.43301392
1515648144481,11.270203,-3.8452606,1.2179413,0.25978088,-0.29267883,-1.2900696
1515648144584,10.313065,-5.69252,1.5003052,0.70755005,-0.71539307,-1.8783264
1515648144686,7.4727783,-3.8428802,1.3974152,0.40638733,0.17034912,-1.8972626
1515648144788,5.91745,-4.4291077,0.7992096,0.5804901,-0.14302063,-1.6083221
1515648144889,5.9605255,-6.0562286,0.29431152,-0.8110657,0.09889221,-0.25341797
1515648144991,9.470795,-6.666397,0.2416687,-0.23440552,-0.598114,1.5345917
1515648145096,8.965912,-2.9072723,1.5816498,-1.669342,1.5588684,1.703186
1515648145199,8.2456665,-3.0580292,-0.41874695,-0.4091034,-0.04284668,1.3782043
1515648145301,9.3703,-2.6943207,1.1294098,-1.9564514,0.9577637,1.4930573
1515648145403,11.418549,-3.9194489,1.696518,0.104003906,-0.35499573,0.87545776
1515648145506,15.428925,-5.9820557,0.99302673,0.40821838,-0.57551575,0.04711914
1515648145608,11.968903,-3.156128,0.7346039,0.4968109,0.026794434,-1.9772949
1515648145711,8.764908,-5.950943,2.0027924,0.744812,-0.08743286,-2.4617157
1515648145814,6.3433685,-4.2759705,1.1126556,1.0105438,-0.1191864,-1.7805939
1515648145918,5.1254272,-4.0414734,1.1676941,0.6342468,-0.28962708,-0.8490143
1515648146020,7.3698883,-6.3266296,1.1150513,0.09301758,-0.34521484,0.3440094
1515648146123,9.67897,-7.441681,0.41156006,-0.9759979,-0.08680725,1.7337341
1515648146232,9.379868,-2.3976135,1.7515411,-0.27044678,1.0506134,1.9713745
1515648146336,9.245865,-3.8979034,-0.0047912598,-0.12750244,-0.2639618,1.180893
1515648146437,9.399002,-2.6488495,1.0887299,-0.31015015,0.25587463,1.223053
1515648146539,11.07637,-3.0891266,0.1268158,-0.35168457,0.4440155,0.17723083
1515648146646,13.663025,-6.826721,1.1844482,-0.26617432,-0.21203613,-0.21003723
1515648146747,12.890137,-3.0293121,1.6773682,0.68556213,-0.740448,-1.0005035
1515648146849,9.47319,-5.469986,1.6582336,1.1082764,-0.43989563,-2.2100372
1515648146952,7.097107,-4.445862,0.75852966,1.0893555,-0.40934753,-2.001114
1515648147057,4.811966,-4.228119,0.42352295,0.48336792,-0.2181549,-1.2466888
1515648147161,7.9585266,-6.6185455,1.0289154,-0.65589905,-0.22242737,0.34461975
1515648147268,8.511276,-5.2737885,2.5651093,-0.98638916,-0.7612152,2.3397217
1515648147370,10.217346,-1.6103668,-0.2536316,0.27993774,1.3261108,1.7129669
1515648147471,8.355743,-3.000595,0.42591858,0.16020203,0.5839081,0.8675232
1515648147573,7.9465637,-2.6201477,-0.122039795,0.06736755,0.34017944,0.95487976
1515648147675,10.394424,-3.0460663,-0.20817566,-0.2582245,0.10499573,0.7502289
1515648147780,13.962128,-5.5417786,-0.21774292,-0.14399719,-0.16622925,-0.07992554
1515648147883,12.437897,-2.8163452,1.0337067,0.29338074,-0.4979248,-0.77204895
1515648147986,9.769897,-4.8071747,1.4069824,0.6000366,-0.8363495,-2.0658722
1515648148088,7.331604,-4.1156616,1.5122681,0.52856445,-0.19311523,-1.7353821
1515648148190,5.5010986,-4.364502,1.4285126,0.48214722,0.019470215,-1.3529816
1515648148295,5.9485626,-6.175873,0.44984436,-0.18553162,0.10987854,0.084991455
1515648148397,9.911072,-6.4701996,1.7682953,-0.888031,-0.19248962,1.65065
1515648148500,9.98764,-2.0075836,0.0765686,0.7539673,0.29862976,1.1082001
1515648148603,7.6331024,-3.0556335,-0.105285645,-0.20751953,0.33467102,1.0831604
1515648148706,9.322433,-1.8400879,-0.12921143,0.17182922,0.015808105,1.0868225
1515648148807,10.82753,-2.5818634,-0.5647125,-0.87153625,0.619339,0.24565125
1515648148910,13.727631,-5.027313,0.59103394,-0.75364685,-0.02696228,0.0501709
1515648149011,12.057434,-1.5457611,1.1605225,-0.07984924,-0.10513306,-1.0041809
1515648149113,9.841675,-5.099106,2.0554352,0.5206299,-0.1680603,-1.6523132
1515648149215,8.035095,-3.7088776,1.2346954,1.132721,-0.28962708,-1.3065643
1515648149317,6.025131,-3.8069763,0.49531555,0.9592285,-0.17845154,-0.929657
1515648149421,7.207184,-5.242676,-0.35653687,-0.162323,-0.0342865,0.072784424
1515648149523,10.021149,-7.3627167,1.9908295,-1.20018,0.16546631,1.40448
1515648149626,9.18605,-2.3066864,-0.062210083,-0.3083191,0.7684021,0.69403076
1515648149729,6.8315125,-4.0390778,1.9405823,-1.120163,0.68592834,1.1075897
1515648149832,7.824524,-2.6967163,0.73698425,0.13027954,-0.31222534,1.2041016
1515648149935,11.133804,-3.5892334,1.6845398,-0.009597778,-0.4906006,0.7465668
1515648150039,13.447662,-4.113266,-1.0504456,-0.69499207,0.3322296,-0.14956665
1515648150141,12.579071,-1.7658997,1.3471527,0.5572815,-0.5040436,-0.8306885
1515648150243,9.643082,-4.8263245,1.4979095,0.87065125,-0.3983612,-2.0444946
1515648150346,7.0372925,-4.1108704,0.9523468,0.6812897,-0.080703735,-1.6590271
1515648150448,5.4963074,-4.371689,0.90448,0.36058044,-0.064208984,-0.89971924
1515648150551,7.001404,-5.333603,0.75852966,-0.14031982,-0.17538452,0.42036438
1515648150652,11.643478,-8.283951,0.052642822,-0.5722046,-0.43745422,1.1411896
1515648150755,10.231705,-1.5720825,0.7680969,-0.3327484,1.2418213,1.3580475
1515648150855,6.8410797,-2.251648,1.2466583,-0.34375,0.3755951,0.5009918
1515648150957,6.9176483,-2.794815,1.8448639,-0.4543152,0.042678833,1.2493134
1515648151059,10.712662,-2.6656036,0.49771118,0.3037567,-0.27435303,1.1363068
1515648151161,13.873581,-5.458023,0.8805542,-0.41766357,-0.14057922,0.1161499
1515648151262,14.967102,-2.4143524,1.134201,-0.15437317,-0.057495117,-0.5753479
1515648151365,8.671585,-4.680359,-0.9714813,0.1003418,1.2234955,-2.3444214
1515648151466,6.5946198,-3.5270233,2.6368866,-0.34558105,0.40187073,-1.1996613
1515648151570,5.728424,-4.484146,2.4430695,1.7087708,-0.75816345,-0.8282471
1515648151671,7.7742767,-5.950943,0.39482117,1.6318054,-1.1827087,0.48451233
1515648151780,10.72702,-6.7621155,-0.8422699,-0.040145874,-0.3665924,1.0501709
1515648151881,9.011368,-2.280365,1.1892395,-0.7579193,1.2638092,1.8595734
1515648151982,7.0875397,-2.8881378,0.7992096,0.0013885498,0.21617126,0.9066162
1515648152083,8.712265,-3.3092804,-0.088531494,0.072250366,0.03352356,0.84490967
1515648152184,10.363312,-3.8237305,0.124420166,-0.6662903,0.57536316,0.3971405
1515648152287,11.502304,-5.024933,0.25125122,-0.45126343,0.16485596,0.2645874
1515648152389,12.691528,-3.723236,2.2994995,-0.6589508,-0.092315674,-0.028015137
1515648152491,9.157333,-4.618149,2.383255,0.692276,-0.045288086,-1.5899963
1515648152594,7.8221436,-3.7998047,0.42591858,1.1455383,-0.27496338,-1.5435791
1515648152697,5.7021027,-4.1036835,0.7465668,0.69532776,-0.15400696,-1.3939056
1515648152798,7.085144,-5.469986,0.16989136,-0.02243042,-0.33299255,-0.042663574
1515648152900,9.389435,-8.329422,1.7371826,-1.6742249,0.7439575,0.9450989
1515648153001,8.056641,-2.3688965,2.4095764,-0.9436188,1.009079,1.8308563
1515648153103,8.745773,-4.445862,0.41635132,0.4797058,-0.5565796,0.625
1515648153205,8.482559,-3.144165,-0.25125122,0.549942,0.028015137,1.145462
1515648153307,9.28894,-3.0149536,0.36849976,-0.393219,-0.04222107,0.7551117
1515648153409,12.208176,-5.168503,1.0097656,-0.3938446,-0.13995361,0.48388672
1515648153511,13.746765,-3.6155548,2.2037964,-0.040145874,-0.34214783,-0.36764526
1515648153612,9.243469,-5.757126,2.0602264,0.38806152,-0.092315674,-2.3120575
1515648153713,7.3124695,-4.6013947,1.6678009,1.2060242,-0.07337952,-1.555191
1515648153814,6.168701,-4.1802673,0.8231354,1.0459747,-0.6952362,-1.2760162
1515648153916,7.2502594,-5.9820557,0.3900299,0.1162262,-0.088027954,-0.4947052
1515648154017,9.140579,-8.087738,1.2753754,-0.5532837,-0.18089294,0.65371704
1515648154120,9.379868,-3.4983063,0.41635132,0.13883972,0.12025452,1.4124146
1515648154221,7.503891,-3.4432678,0.9954071,-0.86787415,0.81481934,1.1918945
1515648154324,7.903488,-3.3427734,0.76091003,0.040481567,-0.019622803,1.2810822
1515648154426,9.927826,-3.1345978,0.6125641,0.025817871,0.06590271,1.1546326
1515648154528,13.483551,-4.6995087,0.107681274,0.69044495,-0.4612732,0.38676453
1515648154632,12.693924,-3.7567291,0.99780273,-0.22645569,0.1605835,-0.37986755
1515648154735,10.669601,-4.5679016,1.7611237,0.12905884,-0.39164734,-1.7689819
1515648154838,8.001602,-5.0895386,1.8783722,0.653183,-0.16744995,-2.0695343
1515648154940,6.5682983,-4.532013,0.74417114,0.65257263,-0.3995819,-1.7011871
1515648155042,5.826523,-5.0895386,0.69869995,-0.04624939,-0.12957764,-0.50387573
1515648155149,9.590439,-7.9082794,-0.20578003,-0.77319336,-0.19371033,0.59568787
1515648155251,10.322632,-2.7972107,1.9980011,-1.0743561,0.905838,1.5480347
1515648155354,6.099304,-4.106079,2.395218,-0.61009216,0.866745,0.44664
1515648155456,7.5421753,-3.8739777,0.6891327,0.18586731,-0.5009918,1.767334
1515648155558,11.743973,-2.395218,-0.7657013,-0.4292755,0.61628723,1.2975769
1515648155660,14.268402,-3.9792633,0.4091797,-0.5813751,0.33467102,0.4411316
1515648155761,13.696518,-2.7589264,1.9621124,-0.005935669,-0.39897156,-0.21310425
1515648155873,10.516449,-4.577469,1.3974152,0.82850647,-0.47410583,-2.1324463
1515648155975,7.802994,-5.058426,1.0648041,0.67333984,-0.05015564,-1.941864
1515648156077,5.5130615,-4.249649,1.7563324,0.57865906,-0.18026733,-1.2955627
1515648156179,6.4008026,-5.230713,0.97387695,0.6281433,-0.43440247,-0.23326111
1515648156281,10.817947,-7.491928,-2.0865479,0.41433716,-0.45700073,-0.007843018
1515648156384,8.362915,-4.3740845,2.3856506,-2.026703,1.9614258,1.4447937
1515648156485,7.0947266,-3.739975,0.9068756,-0.44882202,0.023132324,1.3702698
1515648156588,8.772095,-3.5485535,1.1868439,0.3110962,-0.39164734,1.9646454
1515648156690,9.647858,-3.2446747,1.6247253,0.15287781,-0.08621216,1.5070953
1515648156792,13.794617,-3.661026,-0.35653687,-0.3938446,0.30230713,0.4631195
1515648156893,13.495514,-4.2544403,2.1296082,-0.74386597,0.1960144,-0.6712494
1515648156995,10.291534,-5.0321045,2.3090668,1.0087128,-0.54740906,-2.0848083
1515648157100,8.874985,-5.3312073,1.7802582,0.6568451,-0.61460876,-1.8990936
1515648157204,7.092331,-4.862213,1.9453583,0.33981323,-0.12896729,-1.9797363
1515648157307,5.120636,-4.3908234,1.3758698,0.6476898,0.030471802,-0.9974518
1515648157410,8.934799,-6.3385925,0.7657013,0.1003418,-0.64881897,0.37026978
1515648157511,7.7431793,-5.120636,3.562912,-0.90940857,0.16790771,1.3635406
1515648157613,7.422531,-4.54158,-0.89730835,0.2677307,0.7494507,1.7648926
1515648157715,8.944366,-4.1730804,0.6460571,-1.6247406,1.153244,2.443573
1515648157817,11.392227,-3.172882,2.8259277,-0.49523926,0.361557,1.6677551
1515648157925,13.409378,-4.76651,0.32302856,-0.27227783,0.5558014,0.5578003
1515648158027,15.584457,-5.6111755,3.2996979,-0.019378662,-0.935318,-0.2992401
1515648158129,8.949158,-4.163513,2.498108,0.93785095,-0.32566833,-2.5838776
1515648158230,7.956131,-5.5202484,1.8233337,1.7405396,-1.2218018,-1.9449158
1515648158332,7.3411865,-4.6013947,1.1485596,0.7778015,-0.5639038,-1.7873077
1515648158433,5.761917,-4.606186,1.6821594,0.6385193,-0.29512024,-0.93515015
1515648158538,8.020737,-6.994217,0.5383911,-0.11161804,-0.25663757,0.17907715
1515648158640,5.893524,-4.9914246,1.3615112,0.09118652,1.3713226,1.6451569
1515648158742,6.8841553,-4.2640076,-0.39242554,-1.0987854,1.1966248,1.4234161
1515648158845,9.2482605,-4.474579,1.8831482,-1.7096558,-0.15278625,2.4728851
1515648158947,10.822739,-3.4648132,2.6799622,-0.93507385,0.48617554,1.8766785
1515648159049,12.088547,-4.352539,0.68196106,-0.5905304,0.4953308,0.117370605
1515648159150,13.746765,-4.7330017,2.4957123,0.5884247,-0.416687,-0.32000732
1515648159252,12.440292,-4.3956146,1.1294098,0.8309479,-0.36354065,-2.2124786
1515648159363,10.205383,-7.3411865,2.3090668,0.8059082,-0.37025452,-2.874649
1515648159466,6.936798,-4.668396,1.1629181,1.2231293,-0.33666992,-1.9326935
1515648159580,6.0969086,-4.8430786,0.6388855,0.5218506,-0.3262787,-1.4281158
1515648159682,8.439484,-8.092529,0.9188385,-1.1623077,0.2760315,-0.39819336
1515648159787,5.996414,-3.7304077,4.165909,-1.4787445,0.7097626,2.408142
1515648159889,8.307877,-1.8903351,-4.1850433,-0.03831482,-1.8394012,0.9530487
1515648159998,10.076172,-3.2494507,3.4456635,-1.5379944,1.3145142,2.0727692
1515648160100,11.274979,-2.0530396,0.6795654,0.17120361,-0.40446472,1.4221954
1515648160205,12.777679,-3.6586304,1.4763641,-0.1329956,0.09033203,0.6298981
1515648160307,15.026932,-2.6416779,2.0219421,0.4509735,-0.4637146,0.08988953
1515648160412,10.947159,-4.4291077,1.7970123,1.0875092,-0.11735535,-2.2179718
1515648160515,9.037689,-4.6636047,0.8446655,1.2854309,-0.40202332,-2.2784424
1515648160616,6.0753784,-4.266403,1.0600128,0.7423706,-0.20471191,-1.9944
1515648160719,5.3192444,-4.1826477,0.8757782,0.48336792,-0.38613892,-0.48554993
1515648160823,9.59761,-6.7669067,0.928421,-0.13360596,-0.5022125,0.6726532
1515648160931,8.274384,-3.4169464,3.3236237,-0.9369049,0.36460876,2.519928
1515648161033,9.59761,-4.1611176,-0.06700134,2.4638062,-0.908432,1.3904266
1515648161135,9.970886,-2.1583252,-1.036087,-0.36817932,1.0151978,1.7819977
1515648161236,8.774475,-2.3976135,0.06939697,-0.6027527,0.84046936,1.2395325
1515648161338,14.012375,-3.1968079,-0.90448,-0.51234436,0.4709015,0.146698
1515648161439,14.495728,-6.1160583,0.23449707,-0.5868683,0.12210083,-1.1006927
1515648161541,11.586044,-4.47937,1.7252197,-0.051132202,-0.1509552,-2.0957947
1515648161644,9.434906,-5.716461,1.4452667,0.2310791,-0.09048462,-2.1697235
1515648161747,6.273987,-4.342972,1.6988983,0.5853729,0.11903381,-1.7506561
1515648161849,4.249649,-4.2113647,0.9882355,0.6831207,-0.112472534,-0.6016083
1515648161952,7.7814636,-6.3840485,0.9379883,0.06980896,-0.40141296,0.8620148
1515648162056,8.793625,-5.8336945,2.120041,-1.3797913,-0.07398987,2.7434998
1515648162158,10.138397,-3.9385834,1.6773682,1.0875092,-0.116744995,2.2303772
1515648162259,9.779465,-2.651245,-0.624527,-0.22218323,0.107437134,1.0410004
1515648162361,9.2482605,-2.8857422,-0.45463562,-0.8868103,1.2967987,0.9188385
1515648162463,12.579071,-4.543976,1.031311,-0.4060669,0.1642456,0.5657501
1515648162566,16.120453,-4.4267273,0.6316986,0.1308899,-0.6298828,-0.56007385
1515648162667,11.03331,-5.54657,1.2227325,0.16571045,-0.37332153,-2.5545654
1515648162769,7.659424,-5.4340973,1.9501495,0.85476685,-0.4790039,-2.216751
1515648162871,6.90329,-4.101303,1.3902283,0.85905457,-0.89071655,-1.8722229
1515648162973,6.611374,-6.6927185,1.5601196,-0.07984924,0.15385437,-1.5454102
1515648163077,7.0468597,-6.6879425,0.6412811,-1.345581,1.8239746,0.56025696
1515648163180,9.044876,-3.2494507,1.557724,-2.7212524,0.41653442,1.4105835
1515648163287,8.858231,-3.7304077,1.4189453,-0.9686737,-0.4447937,1.8223114
1515648163389,9.511475,-3.1657104,1.655838,-1.1384888,-1.0025177,1.1137085
1515648163491,11.078766,-0.9523468,2.0554352,-0.7408142,0.1972351,1.3610992
1515648163592,14.1176605,-2.9934235,3.3954163,0.3037567,-0.34765625,1.0617828
1515648163694,17.529816,-1.9190369,1.6127625,1.7167053,-0.9133301,-0.6388855
1515648163802,9.88475,-5.905487,1.7658997,1.0551453,0.22349548,-2.7323303
1515648163904,7.956131,-4.9411774,0.6269226,1.8095703,-0.45700073,-1.8642883
1515648164007,6.6687927,-5.0105743,0.5670929,0.5413971,-0.56085205,-1.7567749
1515648164109,6.3625183,-5.3527374,1.7611237,-0.27593994,0.03352356,-0.4433899
1515648164210,8.365311,-7.9944153,0.27038574,-0.264328,0.08482361,0.49671936
1515648164312,9.611969,-1.655838,1.7419739,-0.3736725,0.5826874,2.1149292
1515648164414,7.951355,-3.8739777,0.42352295,-1.2075195,0.4586792,1.7099152
1515648164522,9.466003,-1.696518,1.2107697,-0.46958923,0.31878662,1.8021545
1515648164631,12.705887,-2.4693909,0.83987427,0.07286072,-0.35681152,1.1894531
1515648164734,15.335602,-3.8332977,1.2012024,0.07713318,-0.18699646,-0.16972351
1515648164837,13.095917,-3.0963135,0.5120697,0.23901367,-0.20166016,-1.7512665
1515648164939,8.281555,-5.8217316,2.3401794,0.4259491,0.25831604,-2.230194
1515648165043,6.900894,-4.3334045,0.68673706,1.4008942,-0.5431366,-1.6064911
1515648165146,5.3647156,-4.409973,0.55513,0.48886108,-0.060546875,-1.0622101
1515648165247,6.171097,-5.3694916,0.70588684,-0.45126343,0.1618042,0.44052124
1515648165349,8.956329,-5.8073883,1.1150513,-0.1769867,-0.621933,1.7111359
1515648165451,10.29631,-3.3619232,-0.13877869,0.43876648,0.5930786,1.6134033
1515648165554,8.444275,-2.7828522,-0.39959717,-1.0987854,0.7610626,1.0006866
1515648165658,9.126221,-4.08934,2.4646149,-0.4103241,0.38110352,1.4869537
1515648165761,10.533203,-4.3621216,-1.4620209,-0.096343994,0.08544922,0.85224915
1515648165862,16.639694,-6.077774,2.1631165,-0.93629456,-0.7722168,0.9359436
1515648165963,11.380264,-3.2686005,0.71066284,0.2976532,0.1605835,-2.7115479
1515648166065,7.6785736,-5.4676056,1.6725769,0.43754578,-0.08743286,-2.136734
1515648166166,7.5637054,-4.3334045,1.0217285,0.46748352,-0.22608948,-1.5875549
1515648166267,6.271591,-4.163513,1.586441,0.5542145,-0.21081543,-0.9601898
1515648166370,7.7240295,-5.67099,0.42114258,0.20907593,-0.15705872,-0.08848572
1515648166471,7.9704895,-5.922241,1.6869354,-1.054184,0.841095,1.5614777
1515648166572,8.171494,-3.0341034,0.8829498,-0.15254211,0.6993561,1.094162
1515648166673,7.35553,-3.7854462,0.99780273,-1.0309753,0.5796356,1.1192017
1515648166774,9.279373,-2.876175,3.1896362,-0.5990906,0.1129303,1.2047272
1515648166875,14.340179,-3.2494507,2.2660065,-0.08596802,-0.11064148,0.58529663
1515648166976,14.976685,-4.158722,3.4049835,0.12783813,-0.35437012,-0.5338135
1515648167077,12.75853,-1.763504,2.9431763,0.80895996,-0.116744995,-1.4250641
1515648167180,8.975479,-5.01297,2.8953094,1.4216614,-0.6805725,-2.4611053
1515648167280,6.4414825,-3.7543335,2.6440735,0.98794556,-0.11064148,-1.6584167
1515648167382,5.333603,-3.5413818,2.292328,1.0276489,-0.48876953,-0.7848816
1515648167483,7.051651,-5.070389,1.5194397,0.51145935,-0.34887695,0.22793579
1515648167585,9.044876,-6.592224,1.0289154,-1.2765503,0.099487305,1.3177338
1515648167686,9.427719,-2.2947235,2.2348938,-1.0871735,0.66270447,2.0923157
1515648167788,9.911072,-3.275772,1.3208313,0.1162262,-0.008026123,1.2450409
1515648167889,8.812759,-2.6847534,1.146164,-0.70843506,0.5808563,0.882782
1515648167995,9.482758,-2.411972,0.98106384,-0.9527893,0.7127991,0.4325714
1515648168097,14.548355,-4.455429,2.9120636,-0.7933502,-0.12896729,0.089263916
1515648168198,13.890335,-3.048462,3.9026947,0.12232971,0.12088013,-0.9015503
1515648168301,8.078171,-4.0007935,3.3834534,0.8675995,-0.23036194,-1.8459625
1515648168402,7.831711,-3.8141632,2.1343994,1.7099915,-0.8387909,-1.1318512
1515648168503,6.4247284,-3.7423706,1.9477539,1.263443,-0.6866913,-0.9919586
1515648168605,7.133011,-4.6588287,1.1365967,0.7924652,-0.32200623,-0.30717468
1515648168707,9.233902,-7.1641083,0.67237854,-0.54167175,0.092163086,0.38554382
1515648168809,8.145172,-3.4217377,3.6514435,-1.3730621,0.9205017,1.5150452
1515648168911,8.070984,-2.4382935,-0.9690857,0.8608856,-0.3519287,0.99702454
1515648169014,8.791229,-2.847458,0.5407715,-1.5483856,0.9021759,1.1534119
1515648169119,9.367905,-2.2707825,1.8592224,0.1822052,0.23388672,0.9897003
1515648169222,11.602798,-3.7447662,-0.6197357,0.8034668,-0.4142456,0.7484131
1515648169324,15.081955,-5.95813,1.0432739,-0.50990295,-1.155838,0.8052063
1515648169426,10.490128,-3.9840546,1.6414795,-0.22401428,0.4440155,-2.1636047
1515648169529,8.047058,-5.2378845,1.832901,0.6886139,-0.41485596,-2.108017
1515648169633,6.2285156,-4.433899,1.5912323,0.3782959,-0.019012451,-1.5490723
1515648169739,5.93898,-4.926819,1.8065796,0.45648193,-0.2859497,-0.35543823
1515648169841,9.276978,-7.6737823,1.4452667,0.16264343,-0.30795288,0.33973694
1515648169949,7.668991,-3.9936218,5.826523,-0.26739502,0.25404358,2.0495605
1515648170052,7.5086823,-4.1084747,-2.7900238,1.6091919,0.18501282,0.5608673
1515648170154,7.968094,-2.9647064,-0.29431152,-0.8965912,0.96388245,1.2273254
1515648170256,9.415756,-3.0245209,0.39959717,-0.8617554,0.5374756,0.92311096
1515648170359,12.251251,-5.1996,1.105484,-0.98576355,0.43363953,0.7184601
1515648170463,15.393036,-5.079956,1.8927155,-0.3926239,-0.37454224,0.2499237
1515648170565,10.700699,-3.4360962,1.3974152,0.1980896,-0.2340393,-2.4818726
1515648170668,9.104691,-5.1302185,1.2251282,0.67089844,-0.3836975,-2.1575012
1515648170769,6.7046967,-4.5798645,1.4404755,0.09667969,-0.068481445,-1.786087
1515648170872,5.1852417,-4.1611176,2.251648,0.17671204,0.031066895,-0.7225647
1515648170973,8.587845,-6.793228,1.454834,0.576828,-0.58161926,0.4936676
1515648171075,9.628723,-3.6873474,-0.033493042,-0.2838745,-0.19615173,1.9964142
1515648171176,8.879761,-3.2039948,-0.22253418,-0.7078247,1.4598999,0.8406372
1515648171279,8.126022,-2.8259277,0.6460571,-0.16964722,0.3126831,1.0226746
1515648171382,8.437088,-2.4191437,0.088531494,-0.5734253,0.40003967,1.0886536
1515648171485,11.332413,-4.515259,1.0337067,-0.8012848,0.36094666,0.7881012
1515648171588,16.823944,-5.970093,1.7132568,-0.20202637,-0.47349548,0.457016
1515648171697,10.269989,-3.5413818,1.249054,0.119277954,0.42141724,-2.133667
1515648171799,8.303101,-5.1924286,1.7946167,0.9317322,-0.37210083,-1.9864502
1515648171901,6.2165527,-3.8500519,0.9786682,0.87675476,-0.37454224,-1.5337982
1515648172002,5.81456,-4.0343018,0.88534546,0.43998718,-0.2945099,-0.6798096
1515648172104,8.17627,-5.9653015,1.5266266,-0.18858337,-0.25602722,0.4411316
1515648172206,8.202591,-5.4269257,1.8664093,-0.98698425,0.44952393,1.9182129
1515648172308,9.286545,-2.3234253,0.25602722,0.11073303,0.32063293,1.2572632
1515648172410,8.575882,-3.0053864,0.31106567,-0.7866211,0.7390747,0.8797455
1515648172511,8.779266,-3.048462,0.72502136,-0.5239563,0.3468933,0.9176178
1515648172624,10.894516,-2.6392822,0.6029968,0.3624115,-0.16989136,0.7923889
1515648172728,16.811966,-6.829117,0.79681396,-0.3755188,-0.25602722,-0.7201233
1515648172831,10.518845,-3.3308105,2.3473663,0.2677307,0.40187073,-1.9314728
1515648172932,8.499313,-5.7547455,1.9740753,0.7130432,-0.21022034,-2.1678772
1515648173034,6.305084,-3.9146576,1.7228394,1.1351624,-0.30000305,-1.1459045
1515648173141,5.4340973,-3.4504547,0.825531,0.70266724,-0.39164734,-0.41957092
1515648173245,8.185852,-5.309677,1.0528412,-0.03892517,-0.29084778,0.4496765
1515648173347,9.389435,-5.4891357,-0.33021545,-1.1427612,-0.041625977,1.299408
1515648173449,8.906082,-2.0482635,2.3018951,-1.9698944,1.5851288,0.8950043
1515648173551,9.016159,-2.7708893,1.3375854,0.25978088,-0.19799805,1.0263367
1515648173652,8.547165,-1.3471527,0.8279114,-0.1158905,0.16607666,0.7221222
1515648173755,9.241089,-2.2899323,1.2059784,-0.525177,0.4104309,0.19862366
1515648173859,12.957138,-3.8237305,1.2729797,0.17671204,-0.28657532,0.31956482
1515648173962,12.835098,-2.0554352,1.9142609,0.48580933,-0.4258423,-0.3988037
1515648174066,9.533005,-4.3214417,2.371292,1.1504364,-0.66897583,-1.5056915
1515648174169,7.142578,-3.3810577,1.179657,1.0875092,-0.2670288,-1.3548126
1515648174276,6.2309113,-3.6849518,1.2681885,0.9152527,-0.5718384,-0.955307
1515648174378,8.195419,-5.740387,0.830307,0.15776062,-0.39102173,-0.27235413
1515648174481,10.78923,-7.9082794,-0.55992126,-1.2802124,0.3078003,0.40142822
1515648174584,7.865204,-3.2039948,1.7563324,-3.1665802,2.0286255,0.83392334
1515648174685,7.482361,-3.3595276,2.074585,-0.69132996,-0.29389954,1.3036804
1515648174788,8.913269,-3.115448,1.3974152,-0.01449585,-0.35621643,1.9512024
1515648174890,10.569092,-2.4191437,1.4452667,-0.2582245,-0.027572632,1.2370911
1515648174999,15.742386,-5.17807,0.42591858,0.07041931,-0.284729,0.23771667
1515648175102,13.182068,-2.4095764,2.622528,0.16937256,0.18562317,-0.74760437
1515648175204,9.57608,-4.7808533,2.2564392,1.6440125,-0.5700073,-2.06221
1515648175306,7.491928,-4.067795,0.41874695,1.7148743,-0.57429504,-1.9015503
1515648175414,6.649658,-4.319046,1.6534424,0.86027527,-0.5382538,-1.3621368
1515648175516,7.767105,-6.02034,0.9379883,0.7692566,-0.40934753,-0.48677063
1515648175618,9.410965,-7.932205,1.0456696,-0.80189514,-0.05871582,1.2224274
1515648175720,7.6115723,-0.6628113,0.3062744,-0.23684692,1.0603943,1.36232
1515648175822,9.037689,-3.7160492,-0.16989136,0.07896423,-0.30917358,0.8834076
1515648175926,7.3411865,-2.2636108,1.2418823,-1.0108185,1.2735748,1.3635406
1515648176032,12.2034,-2.2205353,0.50727844,-0.6449127,-0.53030396,0.9780884
1515648176135,11.645874,-5.46521,1.6654053,-0.96684265,1.1373596,-0.07321167
1515648176239,12.588638,-3.7208405,3.0604248,0.48703003,-0.5156555,0.09965515
1515648176342,8.807983,-4.0917206,1.8568268,0.4100647,-0.1680603,-1.6352081
1515648176444,7.5924225,-3.694519,0.95951843,1.0624695,-0.32200623,-1.4171295
1515648176547,6.0681915,-4.003189,0.550354,0.4656372,-0.496109,-1.2613525
1515648176650,8.063812,-5.3359985,0.7465668,-0.07862854,-0.015350342,-0.22103882
1515648176752,10.731812,-7.207184,-1.6462555,-1.1598663,-0.31100464,-0.15934753
1515648176855,7.4560394,-1.8161469,2.9001007,-0.7383728,1.5148773,1.2554169
1515648176957,7.860428,-3.2063751,-0.4665985,0.34040833,-0.6207123,0.6085205
1515648177058,8.461029,-2.9599152,1.7539368,-1.1122284,0.43486023,1.2309875
1515648177160,10.590637,-2.2779694,2.0291138,-0.31747437,-0.20532227,1.0880432
1515648177262,15.156143,-4.165909,1.6988983,-0.23074341,-0.044662476,0.29452515
1515648177367,13.308884,-2.074585,2.342575,0.019714355,0.47151184,-0.83924866
1515648177469,8.860626,-4.450653,2.720642,1.0197144,-0.21937561,-1.7415009
1515648177571,8.018356,-3.3523407,1.5122681,1.7038879,-0.572464,-1.123291
1515648177672,6.879364,-3.517456,1.0097656,1.2610016,-0.7587738,-1.3053436
1515648177774,6.9678955,-5.46521,0.9403839,0.21336365,-0.11003113,-0.61505127
1515648177877,7.9776764,-5.986847,0.66041565,-0.3400879,0.0048065186,0.7520752
1515648177979,9.250656,-3.3092804,1.6247253,-0.045028687,0.34017944,1.9817505
1515648178081,9.231506,-4.54158,0.88534546,1.68E-04,0.17707825,0.9988556
1515648178184,7.975281,-2.4215393,0.5144501,-0.076797485,0.47273254,1.1509705
1515648178287,9.116653,-2.4765778,0.33499146,-0.17391968,0.1605835,0.731308
1515648178390,11.114655,-4.4769745,0.45224,-0.7420349,0.38415527,0.3134613
1515648178493,14.316254,-5.11586,2.7230377,-0.5031891,-0.24502563,0.26397705
1515648178597,9.257828,-3.6394806,1.6510468,0.32148743,0.2094574,-1.6858978
1515648178699,8.157135,-4.1204376,1.5601196,1.4015045,-0.97502136,-1.2723541
1515648178802,7.5517426,-3.4384918,0.8757782,0.74176025,-0.4820404,-1.343811
1515648178906,7.073181,-4.2137604,1.5003052,0.3135376,-0.07521057,-0.7812195
1515648179009,10.040283,-7.841278,0.9786682,-0.3596344,0.026184082,-0.32183838
1515648179111,6.3625183,-3.677765,3.0029907,-1.4689636,0.8930054,1.494278
1515648179213,8.059021,-3.0269165,-1.5170441,0.5731659,-0.15461731,0.4276886
1515648179316,7.7144623,-3.2973022,0.2368927,-1.1433716,0.83802795,1.1155396
1515648179418,8.386841,-2.1631165,0.43788147,-0.22279358,0.011520386,1.4032593
1515648179523,11.325226,-3.4959106,0.79441833,-0.86665344,0.5454254,0.6824341
1515648179627,15.73999,-5.601593,3.6801605,-0.86665344,0.8093262,0.09111023
1515648179728,10.061813,-2.120041,2.9886322,0.18769836,1.098877,-1.6016083
1515648179830,8.023132,-5.1541443,3.6155548,1.2622223,0.5637512,-2.114746
1515648179931,7.6546326,-4.783249,2.7158508,0.74786377,0.6779938,-1.370697
1515648180033,6.1208344,-3.007782,3.0197449,0.30619812,0.84536743,-0.707901
1515648180135,6.3625183,-2.2061768,3.7519531,0.4803009,0.23999023,-0.11047363
1515648180244,11.571686,-4.405182,4.0055847,-0.7078247,0.03779602,-0.15202332
1515648180347,8.480164,-0.5407715,5.4723816,-0.84161377,0.27420044,-0.2662506
1515648180449,9.5282135,-1.5170441,4.1730804,0.381958,0.44769287,-0.03289795
1515648180550,9.5282135,-1.3208313,3.9314117,-0.4133911,0.6340027,0.039794922